timestamp, accel_x, accel_y, accel_z, gyro_x, gyro_y, gyro_z
0.01,0,0,0,-0.006783982484937706,-0.006471215456299956,0.014673762043499076
0.02,0,0,0,-0.006782498066021633,0.010891063416110397,0.008119490920995107
0.03,0.002318859477373142,-0.005711349488376778,-0.08680276496169978,-0.0006629081814235271,0.016721531943920412,-0.004694802699876704
0.04,-0.0029710983696636965,-0.0013853884506864443,0.006794074547312899,0.005350233596470725,0.022620086521239438,0.0180842854935034
0.05,0.013491682366297554,-0.01133231133517328,0.014864976923997226,-0.01753215564794749,-0.0004940850671673117,-0.003906373127077876
0.06,-0.013490276450683287,-0.0005728777931433393,-0.3565474803222344,0.0012537792208595078,-0.002218481493399235,0.0033391667918616533
0.07,0.0030591956463117253,-0.00474410312696528,0.025523226718893066,0.006234972404555458,-0.0011108619310945629,0.008504726640317588
0.08,-0.004920857481171071,0.012215165796251974,0.0023797547489236466,-0.008523974900931729,0.008779350842934928,0.015254100005915996
0.09,-0.010237203934241443,-0.0005549390682062418,0.01711155053875935,0.008081814889280168,-0.003470736467579531,-0.0032415043908242368
0.1,-0.0007223640842900273,-0.012839230294116282,0.026687346273414375,0.010387443639065595,0.0009100127896275127,0.00624217583542876
0.11,-0.002919488225325383,-0.019685650409141078,-0.003689410869280485,0.01940694456204741,-0.0043807178130188685,0.0031272737160154902
0.12,0.004683478925354978,-0.0131965295861949,0.0004810960162513981,0.020652868132946364,0.0030084772313798175,-0.006747278951991856
0.13,-0.016672403425269454,0.02489631261064901,0.01630553548347859,0.014523933567258203,0.003038410824678411,0.005406701011892581
0.14,0.0005636299438196669,-0.01638562068624342,0.004088717121099422,0.009844909484831632,0.003090268158275014,-0.01271320180658583
0.15,0.0013233100154550108,0.005111542474569016,0.017874389095678518,0.009376585155471736,-0.010242926067508398,0.010338485426164608
0.16,-0.0058618833175304195,-0.012038027992150039,-0.00664060659439061,0.00695190643459503,0.0014842582281334974,0.005320586577662076
0.17,0.006559527391239682,-0.0053913141602155955,0.004657685327443539,0.007960415175900458,0.015412723300078635,-0.018330748193561463
0.18,-0.021981911752160164,-0.00032323666517784354,0.00948746115171216,0.011203967486089643,-0.01022691828364986,-0.0038167885005809176
0.19,-0.0035465142506245096,0.003851960456477524,0.10358811916104273,0.020346986178938962,-0.010784744941725285,0.00944024083472357
0.2,-0.0012844498081789682,-0.008505770388617764,0.0004079862399059557,-0.0019970711295487836,-0.006008520522641001,-0.0038723365603563664
0.21,0.00996023587939418,-0.0066358455937233825,0.4515124488688842,0.0196505928697646,0.00786436835925769,-0.006203950167517012
0.22,-0.007910377753007182,-0.008436775003601677,-0.02023330593635117,-0.011439588869555673,6.304165101304621e-05,0.001939898140371437
0.23,-0.007666042762247374,-0.004142461767605944,-0.03187064757224674,0.002693045869852176,-0.009141954047816524,-0.004001385163147386
0.24,0.0069118578946484235,-0.0009629865729674277,-0.03162217987456986,0.01869247121410324,-0.011026216114814514,-0.010813480073832593
0.25,0.0028141814994310146,-0.0013298954808579934,-0.02399775186660323,-0.006684440457464592,0.010425948370602461,-0.006802176908333636
0.26,0.014384319265603018,-0.020583052354263658,-0.3566935880436971,0.025577122850887472,-0.0015602679837159075,0.0048227242129505405
0.27,-0.013983669477352138,-0.02368123437996672,0.008402558707350004,0.009087467730775886,-0.0009625163303974352,0.006059825526686011
0.28,-0.005919023054900273,-0.018273720958364922,0.000772752898509043,0.0020232755795377027,0.010325586087521276,-0.02003696827042451
0.29,-0.020844771475981527,-0.022742436811939108,0.01063969393158579,0.0027078342491554477,-0.016716555552782213,-0.008858380837279186
0.3,-0.004401294985984875,-0.021661093412866952,-0.0069853648973662984,0.008277138412093085,-0.0075836352510163,0.0010320710709520596
0.31,0.012103464223473427,-0.0020462734195338395,0.0005458878139221286,0.016625314766935146,0.0033107677159230978,-0.02005132663445793
0.32,0.0013718824961549366,-0.01981176679311483,0.0007800002523391638,-0.002468841599716381,0.007085874294765809,-0.005338836149794657
0.33,-0.001593626496083417,-0.00932757985451395,0.16524153262951602,0.014890980605260288,-0.00844734062528412,0.007164896203489425
0.34,0.008841685512181549,-0.006246630258430086,-0.01906119068614627,-0.000993390881401754,0.0035888087196715053,0.0008932021811277327
0.35,0.022989247328575508,-0.020352893603242515,0.07956509994780225,0.001479635480151142,0.0022799037870662544,-0.016724439060223195
0.36,0.007362782940787832,-0.02135344509225407,0.012814637376216811,-0.004910011735251761,0.0041084841494855775,-0.014189343776597491
0.37,0.006196400281390591,-0.018737494230474327,-0.0019137511311971855,0.008134203441070902,-0.008466647147195586,-0.0037128386951554592
0.38,-0.0025219625397889457,-0.02436272604694128,0.0013122179488634523,0.010326075477152512,0.013386609304002813,-0.0028476125208133137
0.39,0.003201466344149917,-0.015195497411258656,-0.00016861793272816405,0.0032018442931795107,-0.008592767572723396,-0.008398156175058282
0.4,-0.008684308455026593,-0.009595889890231628,0.003614889939486581,0.004593722908914763,0.0023732345993419425,-0.004087935081911825
0.41,-0.003892732612429347,-0.026505833456255474,-0.014548398171419827,-0.004692459982078076,-0.0006039000142768774,-0.008069480720795132
0.42,0.004228178789934247,-0.02370522979709438,0.013456059108033921,0.008362820623785504,-0.005660045397699924,-0.004038894060533405
0.43,-0.007900293606705001,-0.039272682600612493,-0.009180478332975452,0.007579044711922578,0.005199088493881487,0.016865384394147566
0.44,-0.005112249947013305,-0.03057575826077759,-0.0005523143449847408,-0.016073180589987437,0.0027141161326470313,-0.013136807016090853
0.45,0.0005549768073759304,-0.019531817676523885,-0.011468561702661452,0.005341771671180399,0.002933744810785135,-0.0012560855686740832
0.46,-0.006980079680951333,-0.02527108792501551,-0.009523833592895055,0.014334585385075847,0.006720036671429688,-0.004938167450690137
0.47,0.00021739642546749274,-0.01583227534697134,-0.004375803141017067,-0.009747025677085961,0.010966320944893138,-0.005435545476516916
0.48,-0.010577986374052797,-0.017683731767963094,0.004376506616443785,0.004231950844426974,-0.0018246236440457608,-0.01746846846756538
0.49,0.0023471921301651206,-0.03820647859954802,-0.00043077336009106457,0.0029374209670920397,0.011260009604077229,0.0034376861252198992
0.5,-0.0008874307983616088,-0.033371612165246145,-0.001676983744210476,0.0006421084699153459,0.0024394138582087646,-0.0332392481657956
0.51,0.010469788454830048,-0.025355732635732868,0.003175250998366198,-0.021160258211121344,0.00036129143745593966,-0.02767503520248882
0.52,0.004074710119876999,-0.02767084301466391,-0.0007454074552373359,0.00011290971630616327,-0.02084543594992296,-0.011883028163238975
0.53,-0.015999342129348778,-0.032191313331847465,0.17658915401453854,-0.014431324903255972,-0.008185039902850536,-0.006404465482814063
0.54,0.011590296137264634,-0.012946185711454302,-0.020988886583724276,-0.007041959327470302,-0.004148869077675888,-0.009520965887227522
0.55,-0.015015769481871917,-0.021218140391827654,-0.01000906074616268,-0.004772142582748582,-0.0025343617104773967,-0.0032648016633779462
0.56,-0.00694584799313156,-0.01792398864201241,-0.0073398138139475644,-0.00302142883058597,-0.023254616912840205,-0.021324081312929434
0.57,-0.005736767395578427,-0.025972444568066626,-0.003284354761288134,0.003995173601451145,-0.01728625380101781,0.007574103094994365
0.58,-0.005866243801373031,-0.013810231768686253,0.08823566919897724,-0.005607909981026773,0.00943008338213886,0.0013721400107334272
0.59,-0.00673676457094595,-0.021796174748676466,0.11490235470705283,0.009694684264338574,0.0018259118954930976,-0.0115383293231189
0.6,0.0035583965307178396,-0.023642723032823137,-0.0028862054000626473,0.012746737022436994,-0.008074805617229858,-0.006315936691009771
0.61,-0.012368963626275003,-0.014838407865467224,-0.013699589320037954,0.002227873536759634,-0.006441000386723947,-0.008088025996848932
0.62,-0.0075812122342668944,-0.021555005947112554,-0.013043911407909064,-0.008438350067802592,0.009838667471360446,-0.01571054517506279
0.63,-0.011910118212234852,-0.02033707945761292,0.004520774350572628,-0.00013653338675621938,-0.016028036198726548,0.0004732932292737524
0.64,0.017921860077056935,-0.017465785711563625,-0.38261589978128163,-0.001368242247180479,0.015353406906808401,0.002071903192095128
0.65,0.005704985019855645,-0.010335677440937127,-0.011144947183364812,-0.00524457385070932,0.006764431506960451,-0.02366705706920975
0.66,-0.006434313523959206,-0.013963847528511486,0.0044432123221729725,0.00132060811457229,-0.018337254820446396,0.0061175329534644395
0.67,-0.0060016314013294145,-0.00923006806941201,0.016148102488713394,-0.004654182578758358,-0.006801744500455086,-0.014396081049308678
0.68,0.010102438742919063,-0.012443896526083659,-0.007600445052583232,0.010509459436425214,-0.001579545847616636,0.007038695642996982
0.69,-0.005078194889544768,-0.002649554761966825,0.00944214590786125,0.0084942858022256,-0.004321254067815354,-0.0027528719792784826
0.7,0.004170917640528367,-0.01746732832846356,-0.011937524544023484,0.0038288670649590105,-0.008340699537238344,-0.016245505126622834
0.71,-0.007396094796356013,-0.02526689347778708,0.004366504432831541,-0.001683486548706814,-0.00463307939228749,-0.0065460940709527946
0.72,0.005513125138046063,-0.013228809912743396,0.003586028909683754,0.01655277463797013,0.014651445514221512,-0.004475789495000112
0.73,0.008347934824882462,-0.01279349143150592,0.00505460880613731,0.004112938822851263,0.021178744913202915,-0.014524355789422617
0.74,-0.01419803190052936,-0.035959479167349415,0.02604589256553521,0.006423185745452308,0.007676924703120449,-0.022384830191818535
0.75,0.007589460756684847,-0.016521154879353815,-0.0005776560200424825,-0.006847245887900252,0.011363096271428789,-0.011329699145878721
0.76,0.011221714296568635,-0.029214470025880915,-0.005086778696032532,-0.005313797927259781,0.013179557934541309,-0.018186043161931766
0.77,0.004509547801026618,-0.03762215544951942,-0.011779404327320712,0.015055244679230102,0.012057806946728786,-0.013460863681954658
0.78,0.018687273324609188,-0.046596709001365554,-0.003918440491065529,0.007984207632749148,0.01460227256983122,0.01223810981975251
0.79,-0.007088118783735587,-0.032353756019094675,-0.009893483197891809,0.007627959855454544,0.0026877092098628696,0.008485108638277703
0.8,-0.0011994891375306698,-0.017538546949258417,-0.018130182897649835,0.0017896914600799146,0.0004713856153207175,0.000373353494333018
0.81,0.0008538606886678898,-0.024702795576673823,0.004871817243118818,0.016440896718580213,-0.0010382929773016074,0.0019426420783272076
0.82,0.00412171791631929,-0.019520662627587875,-0.001963319243953182,0.0201191724792111,-0.0030025937251684292,-0.008458201643300611
0.83,-0.0015215113790032547,-0.031203326304517193,-0.005120761764213429,0.008408625765360871,0.0037414198183185225,0.005629422916731229
0.84,-0.025414055100343988,-0.0363986411025767,0.007657189132616399,0.00048681947212529404,0.008033378961470617,0.005666908302086946
0.85,0.011129949722101495,-0.024599578286997728,-0.016789324116413602,0.007698723567093542,-0.004847349001919952,-0.011362136085042409
0.86,0.008031705601773468,-0.024647816024267362,-0.01761717344535903,-0.0020393023403456213,0.0036184559780836215,0.0022289185419442107
0.87,-0.013354250194368358,-0.0312095313233313,-0.0007313738202560525,-0.015221016170327279,0.0006839535394975897,0.00267829483386347
0.88,-0.011501545359608862,-0.04227939289158512,0.007266797988547607,0.0036877991877831283,-0.0035328173312789203,0.0036587897064232185
0.89,0.002313893920693353,-0.024017461184482013,0.00891273706754182,-0.0029315694910056114,0.00876526092327299,-0.005838010921020534
0.9,-0.009240230637407273,-0.019437298812516914,-0.003813108961674648,-0.005266400613908364,-0.002066409471158308,0.0019090922403478582
0.91,-0.003051325418339247,0.0048156216335873275,0.006200826447809939,0.010138789773891585,0.002524791179212952,0.02220059872369537
0.92,-0.02646948715846979,-0.0272366657560502,-0.012064647836568266,0.0057028561114896015,0.003949849160141055,0.0008126226231696034
0.93,-0.006065595259980559,-0.022012857986188246,0.010654788358839101,0.00987377187959046,-0.014674393627945126,0.004505020947173753
0.94,0.024574817635547266,-0.024712895061937228,0.010011507920040718,0.0016462308153824866,0.01346873137572378,-0.007097493550996174
0.95,0.006966306698056651,-0.026554177520065315,0.0028971929415099523,0.009629437437791327,0.0076459566662491815,0.01742822404970279
0.96,0.001293897344671416,-0.02496259986048489,0.0054162343828443905,0.0034394772394329984,0.014199599296771783,-0.007583176802641785
0.97,-0.012465897986096042,-0.03595778233723232,-0.01461287764589742,0.010708778777809482,-0.018433990435273072,0.036055201234589745
0.98,-0.011692677042246732,-0.03558221514605153,-0.006308433735549535,0.00625298310437888,-0.007666897405128993,0.031801701817209094
0.99,-0.02059483592374812,-0.04160579024379387,0.3582271151322451,0.009528864596388176,0.004006814028277777,0.022091721522526378
1.0,0.0031209651980684313,-0.05018644261666479,-0.0253802000329205,-0.012673251667192728,-0.005226271010079122,0.003482953114672025
1.01,-0.017691042704918458,-0.03124604250291143,-0.014682780320941169,-0.00336770243088526,0.015499980910825856,0.010613721011571433
1.02,0.016814543187252284,-0.042278889161354624,-0.02987373702028913,0.008624831033498903,-0.005451329924263301,0.01121828206451834
1.03,-0.0016039558434359233,-0.044541709837884816,-0.009130182104365048,0.008937902735306586,-0.007041021381123722,0.025389592843158046
1.04,-0.022049117247713475,-0.03486521220030621,-0.013591541477283416,0.014732399532514623,0.004715502368698424,0.022138375627955165
1.05,0.0037826832882710045,-0.02403969072808816,0.010453869349213548,0.025262767739337826,-0.0019469365758484347,0.02021001148148689
1.06,0.006585059393152766,-0.027700686933205227,-0.01795405442918773,0.014154348379025294,0.00450757549708369,0.01460089144585872
1.07,-0.010232644588814758,-0.02498471815016618,-0.01825162514948748,-0.0011403973764760583,-0.009402960975058296,0.030245711335988724
1.08,-0.012444337662923577,-0.02607105930368886,-0.03331646095274236,0.007015865126117307,5.217087874479463e-06,0.019115354264480012
1.09,-0.015483092414011319,-0.0432096713511864,-0.3737045090755578,-0.0010263513232851643,0.00525030638139414,0.006710700213738732
1.1,-0.005379158279576356,-0.04894452886137095,0.023445886060491153,-0.0007728423035373473,0.006678819433380627,0.009395419451235967
1.11,-0.01730063769310653,-0.06387905775140149,-0.0008637360628305831,-0.002863063436097329,0.01175523764708933,0.0036778622446509155
1.12,0.0035584115483205843,-0.03140358993315034,0.010356639650299416,0.0017355759333034342,0.015533804707091507,0.006677100432115558
1.13,-0.018833980994731284,-0.03613952384029043,0.01961155676337126,0.019684441141868417,0.0022469967128788677,0.013593948722298643
1.14,-0.016962938615030246,-0.05218061902382706,0.014786746041539992,-0.011998392155383585,-0.001223724680572965,-0.009137588787054306
1.15,0.013531500657206538,-0.04617506091579938,-0.011445575631171724,0.009897736841108085,-0.014333445855138417,0.009304468158467165
1.16,0.0005870788817032031,-0.044712991698635594,0.2483097804901852,0.009800382026922,0.002931167548437871,0.01732765974660043
1.17,-0.0018769350890930963,-0.03988425639814243,-0.019114453692082582,-0.0025597319665422134,0.01105660264200286,-0.019968250069766685
1.18,-0.014465178165698653,-0.039874469141870914,-0.004276637288708499,0.0013475330848135014,0.015545803614611402,-0.0038474351338802313
1.19,-0.005814516514748367,-0.052036678028952295,-0.5289832393646711,0.010330266700295312,0.004011388845237761,-0.00023187426657797277
1.2,-0.012720792165402325,-0.05884710764437494,0.02931394435977825,0.0040454452403704665,-0.008917488590613167,-0.02696499727459233
1.21,-0.016930269907180134,-0.03389992617756798,0.003314444030715742,0.0071774319364247,0.011042122569455378,-0.009450523779190784
1.22,-0.009711049115176123,-0.047972604528063637,0.012769907385160418,0.00020265789499028866,0.007100956825056843,0.0042717836777560565
1.23,-0.007353193752274959,-0.05072335771929625,0.01214463255082004,-0.0013149352414573347,-0.006506321055881082,-0.01507743857217711
1.24,-0.01185862917428085,-0.048728817245385955,0.015588277217397181,-0.0013256647138639843,-0.021260995682080987,0.012968564694255495
1.25,-0.026907917053629583,-0.07455994564227733,0.019363231315101564,-0.007978878984823558,-0.015404218852166215,0.006283798285574118
1.26,-0.037475010904496675,-0.04498498976336189,-0.5363930263748669,0.024351199538519153,0.004643645608553008,0.007943453615093276
1.27,-0.003079502073337464,-0.039610189771102755,-0.15368707928497755,0.01922330230540658,0.0003085131562408725,-0.006468660924989508
1.28,-0.0034952851858255857,-0.04431828473454191,-0.07007470409628966,0.012647372030964662,-0.013816769443486466,0.00014762323872721719
1.29,-0.018742504884626685,-0.047138779696778293,0.04119865373879295,0.0010182992490337817,-0.005445207794560465,0.00295520617765559
1.3,-0.011555396399297146,-0.06253841058774498,0.058460649157957886,0.008578528228020814,-0.007880731458639536,0.015961768185382363
1.31,-0.019099676810412466,-0.04924198887940368,0.039432407047154436,0.016456771526277652,-0.014399304995732486,-0.02118446889452651
1.32,-0.007883941003209669,-0.06243521944379431,0.014157748287805028,0.005243174428672474,-0.014482051968391085,0.013867948333881663
1.33,-0.0013784284879349478,-0.05761009465014553,0.04022877795968649,0.00018100509173498737,0.0007710683540470657,0.0016329135943386856
1.34,0.0033936734822238735,-0.07291616329535563,0.0394137420221725,0.012934268327376066,-0.004378396905328465,-0.0016280044891391538
1.35,-0.00420428769483951,-0.05691381664611581,0.036662483372926706,0.005254199910353306,0.021908896106424387,0.010683640423416114
1.36,-0.011719229982892312,-0.06493450733893007,0.013093568891469867,0.00978099466231663,0.021306155656173296,-0.0009954385358413005
1.37,-0.00619063270383902,-0.07602751372441807,0.04225049004366075,0.012306672412801546,0.00341721092141195,0.01230805330390595
1.38,-0.006036917388640086,-0.045905933831693974,0.04118896519671274,0.004461264282692626,-0.0009812538779794449,0.01190075870221451
1.39,-0.015077101434844451,-0.05318296257796191,0.01924979015877132,0.016437446689144528,0.00035641346135593423,0.008648624320729754
1.4,-0.004618353666447815,-0.04856414615807193,0.013895991412235369,0.012059154805068853,0.00536399493154957,-0.0040970498484121905
1.41,0.0005338918395541761,-0.05594623245317124,0.011413899253113336,0.0164815865617613,-0.00469085457767383,-0.010936411952887058
1.42,-0.0030335254246681665,-0.060346373081329646,0.023283556105608113,0.015169635809418434,0.003662875085181206,0.0017717005654281524
1.43,-0.015287663124110274,-0.06786082031777232,0.015595816941577441,0.013792450649545299,-0.005671823214778784,-0.0012368948039883489
1.44,0.007277242998130273,-0.05983396080021103,0.026949409458099306,0.012014535991069402,0.006264743000966533,0.004100537333430403
1.45,-0.012097398324230171,-0.07065536011836511,0.03446586140697816,0.026122744754297537,-0.002385828738629316,0.008006970835342526
1.46,-0.020223239456047988,-0.06371531759838993,0.02789465018316909,0.017930856998531246,0.0119641205983779,-0.02427612713598335
1.47,0.0007813799300283655,-0.053820951641102205,0.013942224256676133,0.02409460091358797,0.0007136594637978796,-0.0017787359849330362
1.48,-0.001880678128563515,-0.06690422816428673,0.13021713937387389,0.006250440526573836,-0.006350016218273236,-0.010785081125449814
1.49,-0.015113493107283337,-0.07027468679563212,0.01269150855670956,0.005892300833809809,0.002559294886720728,-0.0009001273911933771
1.5,-0.0062988380455336725,-0.07709776273703617,0.0059398469152363575,0.004984159520041836,-0.0009518295353400435,-0.00878145337041434
1.51,0.005974635384861326,-0.07335151470233305,0.005409461975395094,0.022393049682417218,0.009175543291342169,0.011856940923507713
1.52,-0.008666300162801776,-0.0833082323951785,0.01630225566310627,0.0180172535403602,-0.012491139550520319,0.01765303050229273
1.53,-0.011072637267397307,-0.0867588114341555,-0.3706477370429179,0.011484038714614456,-0.00569762039653398,0.0024142842023264647
1.54,-0.01900238066775604,-0.07560232167029776,0.07570964070110345,0.006155232441502904,0.016430597637359337,0.0007931350985642721
1.55,-0.0014313615383916706,-0.07787911346873479,0.01574728461261831,0.0022293079273155436,0.0007125906167539551,-0.00437413070468941
1.56,-0.0020143158616268758,-0.09005877694846944,0.04975843183649615,0.01217376553587058,-7.957252655926665e-05,-0.0032016695582625784
1.57,-0.00711774914732845,-0.08633701773888904,0.0419772025978178,-0.0011082050298836573,-0.0056611956638993825,-0.009768053912682505
1.58,0.002741902969396179,-0.07755266972015336,0.03404255482050508,0.009158840786899214,0.005342888987844088,0.006899290860762539
1.59,0.004113717169361788,-0.085005965581977,0.02636182351356832,-0.004211243007775225,-0.014670952480945805,0.003612230176814668
1.6,-0.01705597313784709,-0.06419827234683856,0.03508003342214362,0.007768581170379435,-0.017290877065787805,0.008006142541363927
1.61,-0.013887425541055327,-0.0762806169315674,0.00524875204548144,0.024068591731273833,0.009316077253187189,0.008247576282163192
1.62,-0.0058817787491523684,-0.09432053530928203,0.007140750647630421,0.013650557747712094,-0.0019007584046442242,0.005695279650005246
1.63,-0.014906792744731235,-0.10427832639830109,-0.3876440888069488,0.014592909934949041,-0.011247473227741757,0.016164766062381975
1.64,-0.012737873105514306,-0.09342571799995655,0.032402235643727795,0.012251666793911204,-0.007769667648165376,0.013247339797937649
1.65,-0.020393664080406756,-0.08836573013828344,0.038099017928060974,0.010904496260670624,-0.011561294376210774,-0.009619825513505738
1.66,0.010082825534285984,-0.08132192878425216,0.02497346980554776,0.02244174882779709,-0.02834835741897199,0.010349973440458467
1.67,0.0003711398273258592,-0.09238587947944649,0.0225892186150368,0.028662017083049864,0.002565657455581358,-0.011275599873666943
1.68,8.25759108961906e-05,-0.10373029828504031,0.1416923298434962,-0.0059549360894821275,-0.007140418577593582,-0.005892966607096997
1.69,-0.0014880228010097942,-0.10124806991397556,0.9092434317554375,0.00654813983570693,-0.002726012898795772,0.005918931906855662
1.7,0.0019142725430877005,-0.09606725279620006,-0.019909466384910472,0.0019160613175657187,-0.005087911897506412,0.00509649941927176
1.71,-0.010895437481735791,-0.09373603822023625,-0.02140256048058628,0.01205796477201192,-0.011458885939177798,-0.0008453634533934762
1.72,-0.0013594328204662818,-0.10926027529836303,-0.0076971167965968635,0.02373141080234273,-0.0052562343180019636,0.008667609063244788
1.73,-0.002577329672412182,-0.09992522197340054,-0.011594033197053722,0.008344858059043097,0.005823957739895559,0.0031180402755825397
1.74,0.0067435317445914056,-0.08996141748550855,0.010046025810706339,0.01318073673613279,-0.01237003885098931,0.0021469096059972236
1.75,-0.011859957338670134,-0.0966223673613205,0.005111976043596448,-0.009695473887253824,-0.019727624625019636,0.005023731207251761
1.76,0.002397875162345983,-0.10023876487125565,-0.003672443037220041,0.02549086761638599,-0.006246357830926798,-0.0022752174466279494
1.77,-0.007445820214107718,-0.10501039215594678,-0.05979332894838535,0.007396738527727689,-0.030109904894110296,0.008826821682606997
1.78,0.00155172769031077,-0.10156982728992059,-0.002193220506532307,0.013576412537038503,-0.0234665875859406,-0.01956507436233023
1.79,0.021399919028477866,-0.10759601244437196,0.0009391002233749118,0.017457932602719762,-0.013139546494413885,-0.005608911695241053
1.8,0.004649250412851134,-0.09692658006708255,-0.1844608133550873,0.013806540482535913,-0.02604011055148081,0.01910649551596066
1.81,0.024225609909383165,-0.09123045886936537,0.0028264754211798915,0.028489044176110402,0.009681238505108814,-0.0002569037267763105
1.82,0.009356178345185866,-0.11428812279454156,-0.005255641588467534,0.0077057156877424066,-0.005064853051000932,-0.003103475974717161
1.83,0.01655137579007771,-0.10683119326047467,0.18545351992209808,0.012985311501814211,-0.014794778797517068,0.0014230156910705607
1.84,0.029647464334622606,-0.11404975895094903,-0.0017684429197733988,0.011372171496065958,-0.005550017889906672,0.0024578336543800297
1.85,0.01993703388926365,-0.09862345782786203,0.006386063881652507,-0.003811811590994354,-0.02146344883326857,0.0030045969656593407
1.86,0.022872183194050103,-0.11872135466060418,-0.010287720777526418,0.0005516678670419752,-0.028380070996642512,0.009158597556295512
1.87,0.028950204313063808,-0.10198747977477403,-0.09367395322857203,0.0024498006713107087,-0.01768165844002657,-0.013156157105137187
1.88,0.025789387824637466,-0.11401634689720225,-0.16201584771400357,-0.004887401810762453,-0.019513363404070522,0.005102353705339861
1.89,0.005783745781704468,-0.12443613843227215,0.008143459381603182,0.0023183794116332862,-0.0261484007480415,0.002966866029686388
1.9,0.00664813450664305,-0.1122823532690168,0.0044213008211054705,-0.00449014147435482,-0.0113894435008206,-0.015105198889153851
1.91,0.015804650111313524,-0.10406899970984458,0.010233962231522124,0.017890572132048876,-0.008400976593054317,-0.013944042389408585
1.92,0.017996128012692156,-0.10431410293999706,0.0012076848672312665,0.005208674414345518,-0.005503321944826915,0.003576815327932792
1.93,0.02282123366216344,-0.09979551411371253,-0.0002468405708142673,0.012670723530994518,-0.028038128091176846,-0.0036125571706936924
1.94,0.01666216095168358,-0.10790203269611194,0.005624459591523626,0.02272919250378648,-0.013424920512961843,0.001406724072931798
1.95,0.031534006567287436,-0.10109189197994367,0.001811191218341438,0.0001461842921915424,-0.002884995813524063,-0.010622765263576993
1.96,0.02861706229624242,-0.12337499682395177,0.013478784646683629,0.02934813626633649,-0.016704157194904524,0.013102198709209733
1.97,0.03654336419269374,-0.11538840537837795,0.003556337629902886,-0.0020601118790609923,-0.01178586820684445,0.004971014521862564
1.98,0.03607869250798275,-0.1195862734100189,0.8227448109559468,0.025382693083200472,-0.015922717258047805,0.005290771508044385
1.99,0.005564719472427069,-0.12333078832365152,-0.02426643281628425,0.02661845781142479,-0.00561001097219335,0.02053615842962053
2.0,0.03845490971645435,-0.11734145798175287,-0.03456047552469082,0.01127554127378709,0.004662584640951161,-0.017362647977178784
2.01,0.028394006777138943,-0.12078577619786932,-0.006985416650293719,0.018593969771172062,-0.005972239603044295,-0.003282993181482223
2.02,0.041757244611557935,-0.11605952236321805,-0.034272541833808,0.009168504002932194,0.004040828847595832,0.005734136744333849
2.03,0.01956589816310101,-0.11728663305088058,-0.02016370678561944,0.011495011082626213,-0.0031377329323563196,-0.006063286508391865
2.04,0.036410821384603366,-0.12545956680695655,-0.020360808834989187,0.006434900908903798,-0.013706392627528862,-0.002053450445054313
2.05,0.030023350855033104,-0.17067275670727042,-0.00518459028613946,0.02433565577652911,9.64845566085934e-05,0.007606863399991528
2.06,0.03928182206559983,-0.12464904279720893,-0.019776138798964317,0.004546277714462991,-0.013385564946411112,-0.007605223991585178
2.07,0.04748289351119095,-0.12252972162711818,-0.0368727745752499,0.001087719287002905,0.013019360326197502,0.014802999768104393
2.08,0.039960725549999326,-0.13973718267903285,-0.018405932168282693,-0.003982545291183127,-0.011717647590835665,-0.02131213088269303
2.09,0.04287528313624935,-0.14012958395724676,0.6050905990929042,0.012902322459203013,-0.018248447962867224,-0.0002626992298783281
2.1,0.02910955031287862,-0.1385414410207952,0.7167708963495054,0.00921568472488426,-0.006093769153431932,-0.006340556947150557
2.11,0.04241136729795025,-0.13908229404838,-0.10650700646829904,0.002406125946645018,-0.009267971995039745,0.003010548670445344
2.12,0.04640643564199877,-0.1282479726230574,-0.07408084068798466,-0.006721467990850527,0.0003312959347874197,0.0052019171754254245
2.13,0.02942184927370076,-0.13082156659280925,-0.06492021175860885,0.020295080468867285,-0.010686600995415383,0.001242207009165176
2.14,0.02893246017775128,-0.14534014706823736,-0.06166331381340365,0.0053595714531383485,-0.009031024797720489,0.010894116922332317
2.15,0.04314127417771585,-0.13907093692300934,-0.050233864913495165,0.009095668024401015,-0.0017512553628030712,0.013101132892062307
2.16,0.0409223705441084,-0.15580397482810313,-0.03971774674427227,0.006826723818858701,-0.0033994362350423636,0.009411207921613965
2.17,0.05160785016785655,-0.13574260990295267,-0.05715897489267941,0.0038516688332427846,0.00016516031979502482,0.0074760367944908925
2.18,0.045685806773154015,-0.13447219145732914,-0.06601084155468914,0.010744773974048239,-0.00945638952000207,0.0035535126829413705
2.19,0.03901745661324654,-0.14516056463310237,-0.053345997652005074,0.006383225795365978,0.012961209938349755,0.015380330583899777
2.2,0.039019417690540806,-0.14703784392321745,-0.0454773561187217,-0.0014635858249035126,-0.0009313811846422982,0.0010492025646598535
2.21,0.045621184511139876,-0.1305121999221821,-0.03492759817077902,-0.007651021297797624,0.004938897158556595,0.014914897911353472
2.22,0.038671932495942064,-0.13948027705254143,-0.04516590544336321,0.024974962415317305,0.003182401153012622,-0.008686184902086292
2.23,0.06423185695991894,-0.12439179522875397,-0.0295273291117786,0.013139629516142743,0.005398767089654831,-0.0016490863403109263
2.24,0.048560043754679004,-0.14843422894005964,-0.04022316278418211,0.02453444303414787,0.018700643992504318,-0.013145941118184592
2.25,0.03731640138549459,-0.14257655721792614,-0.03537685199987206,0.01435390559274136,0.017609375362328337,0.006373435839011601
2.26,0.061962595868032384,-0.18593107611903198,0.9868163334484888,0.01724295063176806,-0.014057444120881302,-0.009552993712497099
2.27,0.06896070637026697,-0.1454637441793553,-0.10123808896998909,0.030730524320932255,-0.004545886322640325,-0.008951415951887726
2.28,0.025297534429614563,-0.12870145408501865,-0.06873750055440263,0.014498217398161617,0.008734935966925325,-0.01624532016483485
2.29,0.01945677740816144,-0.14552457581777065,-0.18553804788967287,0.01213289305621091,-0.003802682919855517,0.0002967112124499833
2.3,0.018149360969112252,-0.14832952785736217,-0.058457246614571017,0.01954538865559615,0.03909896622095875,-0.0018791320328713883
2.31,0.02001222473517614,-0.1476681330082823,-0.062257323277778366,0.000967315377568766,0.0013839368675330442,0.004197428597281649
2.32,0.04792201484401957,-0.14846198783493683,-0.04980252594128928,0.02305737301368299,0.01617013077037204,0.01625690936995424
2.33,0.03613302902389979,-0.1673637471528626,-0.07549790591992489,-0.0040113310812095685,0.00901191841424925,0.0122835594725888
2.34,0.029742752416779913,-0.14366769353913383,-0.5670690937389377,-0.007962262379482563,0.011058841002173952,0.005777999377194283
2.35,0.030665951228344875,-0.16262522911674565,-0.025378171691461563,0.016008754479381195,-0.0011250115177372224,-0.0021585673017046067
2.36,0.02392779164652669,-0.15267511923915816,-0.02839639305951914,-0.005850240084846978,0.011188396362671198,0.0030553464737177755
2.37,0.04040284443939417,-0.17522971704682164,-0.023225101626822328,0.010971972668782264,0.005216013474780656,-0.015639975815304488
2.38,0.021045096918436243,-0.15736733525256533,-0.031802189266100796,0.0038034462956921247,0.010028674999107128,0.0103544175115855
2.39,0.04121527785431751,-0.1532963756907926,-0.02287671413052062,0.019733355699069532,0.007994246847667301,0.0031218838561744627
2.4,0.03839579466042539,-0.16688815355772704,-0.024321899723498408,-0.0057351051032940754,0.02344727875881998,0.005360978491963092
2.41,0.044388206203900805,-0.17399669853939864,-0.026106922780388935,0.016723873033779157,-0.0005713782029896936,0.00039174466411851395
2.42,0.028117910056638162,-0.18464413179745612,0.318639259849275,0.007229290763537653,-0.000471098845448277,-0.008791983886474647
2.43,0.02468749048563305,-0.16876122468021484,-0.05923555045042762,0.006228963570209732,0.04429737464214076,-0.009494221175815044
2.44,0.0147269978149784,-0.1691844409895942,-0.046988419941050165,0.021658242529362208,0.034369309033861414,0.024908513569767848
2.45,0.028920535172429932,-0.18241224144060056,-0.04821919263299584,-0.00589164803953846,0.02972006339966414,0.01057773267594544
2.46,0.008790178591488411,-0.16129014040519513,-1.2503022778293535,0.0031184132144479702,0.022535435184020673,0.0020625170272147598
2.47,0.0063171285431382375,-0.19109182897981908,0.6565042394495243,-0.017830207124518552,0.026338162199158764,0.0031617066939667177
2.48,0.009679011305347759,-0.17240212271214006,-0.0026044098270102817,0.0019648833270971477,0.008493016682435139,-0.002902514129204273
2.49,0.017252614170645258,-0.17916020593797174,-0.02286002876026019,0.010641249562408108,0.0006972231715736375,0.012798798603690147
2.5,0.02336327263304747,-0.1687244087120025,-0.03846586000462581,-0.010765164996690174,-0.0008168621767830082,-0.013337629711414455
2.51,0.015445284771516191,-0.15997169711634784,-0.012270413541922303,0.01925897947019451,-0.0011586329262600554,0.0019454472961697885
2.52,0.024507272770328697,-0.1623628682393384,0.52345154524059,0.00989603214139939,0.014613036684211324,-0.0030295487968651524
2.53,0.00858809641738988,-0.16456544059357292,-0.05219916564682453,0.013953259271063691,-6.545923156904142e-05,0.01062570927457698
2.54,0.012772977718663469,-0.17005452270217994,-0.0433674681754534,-0.0002634073704391431,-1.2267139930385688e-05,-0.012029869408679379
2.55,0.00426189114630816,-0.18006559647615794,-0.02146945325531023,-0.00032786016267923827,0.000949766885821891,0.016053690665135737
2.56,0.018606029408006465,-0.15559198156591894,-0.037684830946521065,-0.0007561934042319748,0.014309601390307345,-0.00720532472360345
2.57,0.008180015816142371,-0.18090396008558238,-0.04269698700259799,0.022343008608762205,0.006651442130689427,0.030989328191158714
2.58,-0.003925820971826678,-0.15558586325054571,-0.03333399988601441,0.01224882299042398,0.005149195000073497,0.020288673072067293
2.59,0.006616421008960003,-0.14586718217171415,-0.450137247269191,0.0210337271918726,-0.006164735676581129,-0.01254140132948612
2.6,0.020661489442270545,-0.19127413211573085,-0.008492638264597731,0.002263717969929464,0.002120101286469685,0.021904448407451062
2.61,0.0042183990461026645,-0.18721286561984535,-0.6203676619142326,0.019137536652133486,0.011667341073326206,0.0011370036665115453
2.62,0.0013854378928939478,-0.16783785773159976,0.022264397557071536,0.006724365818470957,-0.007238316230290976,0.0006450778909345622
2.63,0.004563554658175455,-0.17231330706028525,0.007584280807213827,-0.0016052660377574631,0.0018988226653176338,-0.004244875100897783
2.64,0.011179028308633212,-0.16761176342722284,0.006625279050773775,0.00886333793418957,0.0023255643277542625,0.012456888321977336
2.65,0.0044204139257582155,-0.16790002637855556,0.006322265938076848,0.0017635631568506782,0.006810086302564226,4.913844378580731e-05
2.66,0.03284917591421903,-0.1706686300168887,0.004818255553436354,0.0018849289721592534,0.019137909264352063,0.00020453474050016913
2.67,0.02122042003000672,-0.1756043149956302,0.014288040337034222,0.009022155755026096,-0.01132930101435075,0.012088455583680078
2.68,0.004526096372515007,-0.1772019306630012,-0.002924323810281949,0.012967174804733882,-0.0013827517989073728,-0.002241884124759776
2.69,-0.001710133807278521,-0.16275537483059466,0.0038439508420244914,0.01372490291537053,-0.002436883495337913,-0.013848095799031663
2.7,0.004847337975646087,-0.17048106955103415,-0.00048194737245638354,0.002756501439836569,-0.008888191245143829,-0.011955332752351588
2.71,0.006788904862218924,-0.18867481678775017,-0.0007394638467523029,-0.0011880573061444633,-0.0016726131373542385,0.00032416653645056883
2.72,0.0005687617899339222,-0.17258439181379992,0.007382862975505415,0.026216447335260074,-0.00916204311642176,-0.005590797960607441
2.73,0.0053930985546657585,-0.18122806369338854,-0.004869694905877119,0.011450775650033038,-0.010841607086780461,-0.01324163608358847
2.74,-0.0023945709096432205,-0.1803355383642913,-0.012312254020892859,0.0028952135326781414,0.004320698097764712,-0.001763045639849054
2.75,-0.0006510039942895004,-0.198843913243342,-0.00020044530948000504,0.01703965500728498,-0.012270620147911079,-0.00026299293173108257
2.76,0.021574537099998993,-0.16512420987316645,-0.00584889019743407,0.011573604599273358,-0.0004525610391741229,-0.0022099224114722426
2.77,0.01536597859582804,-0.1830520748127653,0.0004792142375625822,0.008959798898059998,-0.024330886825606263,0.007442762454048077
2.78,-0.0060376506852052245,-0.1888405490889513,0.02102274564646701,0.010464289806257097,0.0010703649313542028,0.0027693682663972874
2.79,-0.0013768919669742714,-0.1955850458614771,0.0015475244957248607,0.02592672515214247,-0.008971518084909614,0.006224224562823367
2.8,0.015294978270311291,-0.19787120225120014,-0.0015994364433931472,0.0048166869704575396,0.0020883279200257544,-0.013719211153812808
2.81,0.01893960612889284,-0.20498890063550887,-0.009074899009284909,0.001143113437052293,-0.008774761434178114,0.013103603074713196
2.82,0.01909609539160335,-0.20744672586537508,-0.012830266341901753,-0.004145648776595472,0.005278351603611125,0.01052247589630692
2.83,0.0017944432232089042,-0.19171245670780682,0.006694696770649101,0.008233449788561584,-0.01758698524027223,0.008849586879468069
2.84,0.014693180465123664,-0.18379977748528853,-0.0013631468971542521,0.009409114548341375,0.011133551563238997,0.008682123345761282
2.85,0.020786431984690382,-0.18926323224803993,0.004465216758913633,-0.019113682551581232,-0.01308519047648747,0.013255021491382999
2.86,0.024554621092447743,-0.20308378631008178,-0.005802503268688004,0.000427884576242361,-0.0022208559036979024,-0.005234521625670878
2.87,0.0020869602909966683,-0.19394403658142148,-0.1711081702607152,-0.01179524010992673,-0.01775346713322485,0.013648640243846717
2.88,0.030359267250587345,-0.19903625900430302,-0.005423805797314506,0.00608932349737381,-0.012224868402427477,-0.0053160105030929765
2.89,0.010221218901099671,-0.18318040630593316,-0.3936862269335715,-0.013627710548681234,-0.0007840593596897035,0.014571532809261604
2.9,-0.0009360013734497109,-0.1997103104879182,0.03939813658600162,-0.0029595045299118158,-0.010499510486745236,0.003467164224270157
2.91,0.015733635719856368,-0.17150835923244154,0.03351232169688959,0.01650299467230515,0.010151321577324839,0.006807992339956337
2.92,0.025897080255280213,-0.19255979774849052,0.022420150015084604,0.011113167458983428,-0.004723484455556888,0.005604553521984972
2.93,0.02877923430678583,-0.17894426227538757,-0.3106183481784137,-0.00292067141837557,0.001269771371122574,0.010627906405770375
2.94,0.008972349357168882,-0.21443792218848384,0.043744409322391195,0.010090658022032453,-0.003026355605524776,0.0046282640205354535
2.95,0.01504708792614044,-0.20402892002033007,0.03518225732481915,-0.003315307423727658,-0.002694182632498252,-0.0016365052009576896
2.96,0.02687912789062378,-0.18552915461778466,0.026227871586522712,-0.019667884636585403,0.004611748908439306,-0.0035212586045320514
2.97,0.0182693896960264,-0.21483076789120226,0.016327179328616555,-0.006402093461587238,-0.018326037225396417,0.008789336921556524
2.98,0.031347865329614144,-0.19661538353568975,0.021059456763148285,0.015339771411910522,0.004393214768153105,-0.0059954399337445174
2.99,0.012288655019226883,-0.1935165351746133,0.01950470268123558,0.00901570916898888,-0.010670613344631992,-0.007421182870317398
3.0,0.01714230051861268,-0.19146595406755088,0.17671458538416646,-0.003771599907034771,-0.004199387728242023,-0.004494019885299632
3.01,0.025096908941109504,-0.18762333776218795,0.0032160317385972435,0.0020582812693454283,-0.012695782383687463,0.004122243534322898
3.02,0.020699670098237116,-0.18855666878289556,0.0150194086394809,-0.017725469061623967,0.009441607439340693,0.0029892537856758333
3.03,0.023746458750829792,-0.1973839818030391,0.029272891152292948,0.0022628871984532403,-0.005846579341380181,0.0117795427109352
3.04,0.032466908022508026,-0.20786063765484228,0.3022466568330578,0.015644672066165873,0.01090498470359287,-0.017929502725357684
3.05,0.02119380296459964,-0.19919870004401002,0.007070208414479126,0.02120782732290005,0.002882575811301356,0.007195590276012284
3.06,0.0162990708768002,-0.21438639999306774,1.2134443494480667,-0.0072381872047155085,-0.010933307196362327,-0.01365358809779922
3.07,0.02815333441517819,-0.20888474481773286,-0.06524014862495145,0.01592969373200404,-0.009887454705440803,0.00838580093807317
3.08,0.04984810340290127,-0.1918602819494967,0.21337913620241528,0.0018747930685193688,-0.0003033245253515771,-0.012988527692885098
3.09,0.027816809758394914,-0.20192293884795193,-0.06917399159097515,-0.007760296398008399,-0.012458667141990207,-0.004279422022034033
3.1,0.035923616722030406,-0.19230739873819475,-0.05227436645353455,-0.002285407252454199,-0.0013500723534232645,-0.017555011725229934
3.11,0.025544179964305913,-0.1968827649893815,-0.0359473072869235,0.0027272263960114304,-0.017097650380371626,0.007446643479895177
3.12,0.015678884781986042,-0.19941282022285053,-0.009641097395580587,-0.0013358686699165186,-0.007486306535503242,-0.002505410750412305
3.13,0.01234838973252375,-0.1963986576946088,-0.039901878624411594,0.005562820267346445,0.00956505251502529,-0.015880997682568915
3.14,0.04296512964684292,-0.21226400823560146,-0.040577900843829395,0.021304408467201948,0.013677167808498154,-0.012676172040456285
3.15,0.03564331968582108,-0.20294300066203994,0.307191139790372,0.004451263873183416,0.01500912015322308,-0.015962484689466445
3.16,0.03484611235757508,-0.21775699708211566,0.6250981390669877,0.0024595948390180467,0.005127421942597383,-0.0012547694193495494
3.17,0.017926276614470864,-0.1774762585175237,-0.07825705441868569,-0.0026787865498972795,-0.005662917497899173,-0.014929216727307213
3.18,0.026773265277961856,-0.190143061829244,-0.05142413447391153,0.006100815857050711,-0.017291770813940753,-0.002898359957563934
3.19,0.03204086197207805,-0.20133592383161464,-0.06318996937124591,-0.0037894505781763815,-0.002233920185132259,-0.004966737360269817
3.2,0.018497942082366638,-0.21670945268048508,-0.05524084919837424,0.001581939998186984,0.0003470438450999735,-0.014286476212057907
3.21,0.01604950893018297,-0.19742935966127734,-0.050368400107285674,-0.00635428333407454,0.004525106909246613,0.005094355601995664
3.22,0.0007797506346694551,-0.1847106370710832,-0.038709439538609294,0.013493313598973048,-0.011587425434312144,-0.007834884230085312
3.23,0.0142029344862116,-0.19115603053767105,-0.02364697049587136,-0.022070074435610522,-0.004759055724204329,0.031424786406703376
3.24,0.027850782539393413,-0.20353407643684385,-0.049385058927237796,-0.000252846591761933,-0.005340806327107231,-0.021779099679819752
3.25,0.022967007980901212,-0.19904446764947378,-0.007441344831073771,0.010443088803890629,-0.02152610489338449,0.0030342876744414967
3.26,0.010652686600461873,-0.19993717886373316,-0.0413905048861244,-0.003941886850479974,0.0014365124603079506,0.005860600029557091
3.27,0.028600954100942582,-0.19969234267775363,-0.06076912502476045,-0.0001651795390219461,-0.009302921212902307,0.000739573991431148
3.28,0.014716090782897324,-0.2061333760853406,-0.046231846287830246,-0.012606517806915763,-0.023036751992186785,-0.002716353788306818
3.29,0.03486021801251163,-0.20308890373425698,-0.04102974316812322,0.0014037662864554072,-0.012338313046292817,-0.009180676463453873
3.3,0.028959708102517915,-0.211987247917122,-0.03847393029764295,0.009669546845502558,0.004978399594669412,0.009123742488760571
3.31,0.06009641782768447,-0.20903730887753916,-0.0403360203296928,0.026918349933117806,-0.025885077324801137,-0.00011430756808941114
3.32,0.02382293854417472,-0.18475030065558387,-0.11256707370690323,0.005088313170670183,-0.01966515325074413,0.0007982429406602529
3.33,0.020523487698785956,-0.19721898579803546,-0.030142177740597752,0.008894517319582218,-0.01460749944107197,0.013342432606931026
3.34,0.045373175046719214,-0.20637502366705968,-0.02100843600412927,0.0064184403955020765,-0.010443446220387845,-0.009495557711993691
3.35,0.035219071703936775,-0.19602594554047217,-0.0450831618163723,0.011685713988510867,-0.010763336643114952,0.008488388483998004
3.36,0.05180184482950836,-0.21933028997225018,-0.02154355661149341,-0.001889893813580911,-0.014053879324622577,-0.011965695186388653
3.37,0.032524446356718494,-0.19052850027550575,-0.036952506553533805,-0.011418814788427042,-0.02063822742940248,0.01812767985911048
3.38,0.04202604710826116,-0.19456349044781757,-0.02888321238856921,0.004252398573901403,0.007531770788814365,0.006849698550966604
3.39,0.0549873540037197,-0.19274556466779705,-0.7873324126898802,-0.0022969765186665178,0.0012230061123406997,0.01915766132437254
3.4,0.04176355616855042,-0.19982992133955996,0.010992350336011245,-0.006206306580955476,-0.011989789060569297,0.00800203587152818
3.41,0.04230863794846036,-0.20648195957121107,0.009875271625976723,0.0007169744407950528,-0.002648254098033196,0.0057754588267169525
3.42,0.05073690893403511,-0.20699475855180074,-0.010437589001288033,0.008634278751817227,-0.0006152466096119502,0.013710449765637466
3.43,0.03385368178787926,-0.21338944159991002,0.023908347217508,-0.00716039861756173,-0.010795182935933987,0.023363857866647936
3.44,0.03997093752775697,-0.1980983279754238,0.0068740509760236886,0.016280676233923475,-0.004113677143785346,0.001545602122358174
3.45,0.022035017776018646,-0.19980310727131503,0.002646205548169355,0.005191430767540565,0.0009056748342058541,0.00970413302592995
3.46,0.037078037119427615,-0.20289036886201536,-0.01416624773979811,0.009747704342384658,-0.012764663830129228,0.004180256866168185
3.47,0.04028033388003799,-0.21017650756699466,0.003963432311023319,0.01628610349203571,-0.020805944852940766,0.00824107327635806
3.48,0.03177823818752255,-0.20524012151002735,-0.00349306688476998,-0.004597704841681162,0.0017255226943200495,-0.002729352980010883
3.49,0.06821120490894807,-0.2280219293300888,0.13924364647349655,0.008357509035610791,-0.00959942762522738,0.010878335841505615
3.5,0.06924384694017768,-0.2018326913018722,-0.02492668615139254,-0.004296852574995116,-0.014359159141101623,0.011385529016445592
3.51,0.061790444527778356,-0.20133542773909519,-0.009602412853337546,0.01869367353633906,-0.02154691074371473,-0.0006622328043549837
3.52,0.05426003262020004,-0.20902700950152123,-0.006467296028415154,0.007690284302456042,-0.011926612375390312,-0.0005245272253440974
3.53,0.049713702906775695,-0.19977384530052966,-0.2692855077702055,0.00030213238514822374,-0.018370810382002244,0.0037815703636790497
3.54,0.046231195315732936,-0.20572789112784357,0.0045550487475608855,0.006842861796388227,-0.01087294724454285,-0.00408110942328327
3.55,0.04658763353495014,-0.19625625566044147,-0.009668295029293582,-0.014988738247591093,-0.01196436028872026,0.00580379759827815
3.56,0.06731511108444328,-0.21147732882892226,-0.015595227659663972,0.0023654752163046696,-0.014171787954878067,0.0044734900038910595
3.57,0.05984316101090777,-0.24422352794464056,-0.006669107916892204,0.002629378643282925,0.0014206682318338194,-0.0074109494411258355
3.58,0.08123476524338316,-0.2033954026679291,-0.001146088534095457,-0.005882270068808957,-0.021802325529301038,-0.00891312251328815
3.59,0.06178148896970339,-0.21304950671830225,0.007205574757238188,-0.0014414428442023294,0.006672701787393652,0.012314136587079631
3.6,0.07170811206387807,-0.1940486954746316,-0.008670921135887952,0.0015031607276940187,-0.010031871032782993,-0.006225668174762921
3.61,0.0811897945806987,-0.20312089745857773,-0.011908077443013929,-0.005086758020065905,-0.0027264621358292283,-0.014007105359111647
3.62,0.07267217732345341,-0.19853863408429934,0.004360143408412783,0.015509555876888688,-0.008712819962330552,-0.002215579318687237
3.63,0.0660936694588444,-0.20626197126579954,-0.009001809020497143,-0.012517713460256548,-0.013531623418764353,-0.0003346128505814848
3.64,0.07394316862082373,-0.23646195545121468,-0.019899778385984394,-0.007153231686604321,0.00676525362726072,-0.017258565272443595
3.65,0.07503317641315667,-0.21025444750742653,-0.0014398196838930147,-0.0008419832471265572,-0.004696325615527411,0.00593600230601717
3.66,0.07151116773200589,-0.21886666482404385,-0.005257243275831874,0.016272404233302992,0.007479363680051034,-0.004802644334053467
3.67,0.07094325119014355,-0.19506154797770614,-0.0010478174392185263,-0.006333306709024463,-0.013759864820179846,-0.0013442886637937996
3.68,0.05203519169549863,-0.20928152563035593,0.00123284624735545,0.020759332659696844,-0.013332379322815464,0.00307000131525406
3.69,0.04494101884232453,-0.2084367502199261,0.004597766857743541,0.014912696829976703,-0.0043217367730005,0.0022577986654009627
3.7,0.06967055354739975,-0.20097006413709978,0.0949089488058716,4.8668061405450144e-05,-0.015670372653790975,-0.009967134936567059
3.71,0.052714633066996655,-0.20158032349885455,0.006833218399855671,-0.008398685570511065,0.003474706654845456,0.0031628760208068235
3.72,0.0778590370321325,-0.2052286309814343,0.0021209499804651913,0.002564002376718247,0.004087467007817368,-0.007285735756424153
3.73,0.07613237665474953,-0.2014640473686993,-0.021709837163860834,0.01688878159066231,-0.0021884645356621373,0.0034100953781208737
3.74,0.0672838256757626,-0.21322366168138465,0.008238200928043232,-0.019860595104328797,-0.014587030897571828,-0.00460019449709017
3.75,0.05894323615757249,-0.2301508641802931,-0.004160480597217762,0.007491491196543031,0.007134026576420735,-0.008991281530152679
3.76,0.07411557003023911,-0.22388594206769,0.12840301292134093,-0.0076356670818610905,-0.013675676725680496,-0.017982264268284337
3.77,0.07685500169426275,-0.22704326500618272,-0.008291705191328911,0.003002488223595751,0.0037640504256082298,-0.01825581846986153
3.78,0.07170084233118508,-0.22410483576999504,0.32775065364485034,-0.0149808819710326,-0.001818011593283267,0.013877855829189309
3.79,0.08323117773672888,-0.20974325784760714,-0.01397280629539606,-0.012845398692296518,-0.017277139396528345,-0.003229264974449236
3.8,0.0880241537802707,-0.2037344635367645,-0.01957436818588211,-0.004168662149983298,0.0057444213052674584,-0.0032560933791304274
3.81,0.0690614315876546,-0.21859990819153163,-0.012185377790148852,0.001047160535673134,-0.02195090438410951,0.010147681194424198
3.82,0.08541598950275228,-0.2011523130093273,-0.02584450083514471,-0.0013419701413872438,-0.006323530447189315,0.003323203686756841
3.83,0.07691275449093847,-0.22056762224855556,0.08400402434540932,-0.013900991684596393,-0.0010660674357937652,-0.002501502394555856
3.84,0.07356559720736491,-0.23296103436302504,-0.015464753855748766,-0.006349914734877963,-0.009921287485358234,-0.0062515151597293
3.85,0.0888032956129454,-0.21188757583789675,-0.011326877963521463,-0.005737401614999281,0.008415157977683418,0.0006008680860318224
3.86,0.05831999274043366,-0.22157009251465354,-0.008048494644532583,0.0024715419467119795,0.0032438219171828514,-0.004095354770792054
3.87,0.07933212685893716,-0.21426886923650032,-0.01208365292551391,-0.018135534338480933,0.004424908938363069,0.0025173302436623827
3.88,0.07116323268121913,-0.19394935726545445,-0.013100278728328826,-0.01096855721044292,0.000436650099521222,-0.016815409616737713
3.89,0.07069096158987181,-0.21411867664901343,-0.01884388014249718,-0.003088418716594001,0.006240609868720546,-0.010432981029183644
3.9,0.08597438300300997,-0.2086672086297933,-0.004600125183729594,-0.026194807619599608,0.008436832791332118,0.00026441619752330973
3.91,0.06646608533808965,-0.2139881742002784,-0.010358938250143966,-0.0143740493146771,0.00011516366956474517,0.004195367583037023
3.92,0.07625652351065745,-0.19543327122559684,-0.012592091732420489,-0.030844799361585254,0.012027281072425207,-0.006049283490693101
3.93,0.08194198450305332,-0.21083948431567878,-0.004655847276937,-0.013994639168781239,-0.017745213985614367,0.0033698995463590205
3.94,0.06086076986173286,-0.2067664205388399,-0.014249312618940344,-0.003977062646298078,-0.007748942112513939,-0.00026146627101886763
3.95,0.06110285826367422,-0.2089042342862948,-0.010477535210249439,-0.012752350035089212,-0.010901108752199505,0.00182956953055841
3.96,0.06455141296505984,-0.18971076783132673,-0.009351878693323512,0.006373266974047985,-0.02101836326658654,0.019395480825750374
3.97,0.08260188684156812,-0.19951754894940454,-0.025349963434663378,-0.017735358253143405,0.013321651134664743,0.006158831039103275
3.98,0.08169487239120053,-0.22251951725158892,0.9083928629566329,-0.01568022107144286,-0.0011705178257363984,-0.013861038642723695
3.99,0.07677347782272893,-0.20140711860053986,0.07341603398164509,-0.0045093259945799095,-0.007640121227262201,-0.01967600779144698
4.0,0.06978746622454297,-0.20904340435728147,-0.06138170146348895,-0.02899554993314958,-0.01305223803131475,0.0009044554606891376
4.01,0.05957945104340481,-0.1951026543407687,-0.054435562655145334,-0.028082658107123327,0.01725013853831449,-0.03029342085116896
4.02,0.08580161191162525,-0.19722436728638634,-0.05285142951187483,-0.007529497938639005,-0.004292439367380387,-0.017808569788939528
4.03,0.07054173950443716,-0.1680319207473794,-1.2622655460813583,-0.004558529455060394,0.0017740581621416786,-0.019386384926231244
4.04,0.06881114112027284,-0.17476907238073394,0.017576271500335125,-0.023591705117790067,0.0027211468158802547,-0.0046279409235403714
4.05,0.08767411591631402,-0.20034540133997883,0.017101073756080092,0.0076675713161487285,-0.002414191751271841,0.002163407011921383
4.06,0.07604132063690726,-0.1809953845969994,0.030192042463184375,-0.015114108014117679,0.002671963639511689,-0.005950989147432076
4.07,0.07888728396016317,-0.1958877773180152,0.011730021293673695,0.022375069918720823,-0.007109311762002707,-0.02395546540879967
4.08,0.08481794386183106,-0.17838765918611105,0.02019521920448016,-0.005160299916703259,0.004487164267566715,-0.0027698350327384977
4.09,0.057104704087612056,-0.16881476047905913,-0.6420808749693967,0.012152564024991508,-0.015362981266600928,-0.0040915549551671085
4.1,0.07452427908229041,-0.1812276661065024,0.027262730582494517,-0.01360257995078829,-0.006970499431439656,-0.00805221187663985
4.11,0.10270839224714279,-0.1874375018792323,0.13020630471294214,-0.012691240849672618,0.01463949003553414,0.005015916873513964
4.12,0.08542132117111718,-0.18155396471326396,0.01877253330985099,-0.024999374632432892,-0.006345711311428246,0.0012640578282159974
4.13,0.08123862819480528,-0.19704281373156438,0.672953798147112,0.001048811802104076,-0.0028895434369630157,-0.005102902419010964
4.14,0.06872325340694206,-0.1995433402250611,-0.033849260919214356,-0.00588232834292205,-0.003265206287275434,0.003727782239240707
4.15,0.06550550808810149,-0.17112296119729967,-0.02409896452429603,-0.023696938584455162,0.01205158019187054,0.01134052385223851
4.16,0.0842960262296885,-0.17386582091880334,-0.019009719259615837,0.0006311840683642014,0.002915379661992642,-0.005048020714011941
4.17,0.08691054386715913,-0.1968847561807513,0.7946185638176744,-0.001448126515956039,-0.001303389836067969,-0.0023150443048570316
4.18,0.07347318782649108,-0.18348513416387666,-0.04729732560801227,-0.0072535077540286375,0.0019654517603998915,0.00274110052005353
4.19,0.06795338319541175,-0.15649122350418612,-0.026869757114036358,-0.016495113045163223,0.010898159479275443,0.009566814283029664
4.2,0.0975335384949014,-0.16454591348830344,-0.05513522994946113,0.004503409671239926,-0.007001626028495576,-0.01294137865157671
4.21,0.08172699462383595,-0.1894159750425154,-0.04236190816135535,-0.0010060641477775065,0.012572654687961768,-0.0069508973323552225
4.22,0.09161394895026437,-0.16983075127215583,-0.03174813152871591,0.004995688409670084,-0.0037911173268265663,0.007387230137247995
4.23,0.05783322804469082,-0.17563243826273792,-0.030666482341622718,-0.0006877908884792105,-0.021954374033276724,0.009554191012647564
4.24,0.07222605396964041,-0.18012719583687245,-0.031333977691405404,-1.783005959386406e-08,0.007023206230148991,0.0004583145514587281
4.25,0.07900648454501241,-0.16987738518708886,-0.014855145107028766,0.0040142309710274205,0.012027461869176151,0.008586427757578827
4.26,0.09000652490306227,-0.16800465391759192,-0.034754428843360746,-0.0053105659928713075,0.008911751498781649,-0.0027903706394841864
4.27,0.07561638877897031,-0.19352580318810736,-0.023039517112696507,0.023950519745916617,-0.000347244560640319,0.0031811508042940027
4.28,0.06956774708844926,-0.17823118563775625,-0.006833119143243853,0.016730726603972068,0.002814423729689004,-0.022556258509848652
4.29,0.07491692268690306,-0.1854411113644136,-0.035231597091388955,-0.010379325507443136,0.014433303608680524,0.0019898290108524685
4.3,0.08221514817028366,-0.172380605636237,-0.003791215299559161,0.008202429652177108,0.012272344654600604,-0.0036472556092663083
4.31,0.08142776952720672,-0.18379993035728426,-0.022509631295131997,0.014551823673438857,-0.015206921690408333,-0.008808963001983255
4.32,0.07027838065335351,-0.18477449542933141,-0.007163546343636215,0.016009794524312775,0.006518274577728073,0.003028586508863619
4.33,0.07029928993946137,-0.1636141224925478,-0.017574425361108766,0.021411827311753416,0.008261608886797053,0.017312539083823127
4.34,0.07463069442977978,-0.1935207877741179,-0.013796271274093334,0.02095200247725601,-0.002032237844106266,0.017725267377044416
4.35,0.06186138527153169,-0.1712850848070349,-0.4755420978217899,-0.002545757288009076,0.014942344628420614,-0.006219960637336086
4.36,0.0757158231653621,-0.2005320132672637,0.43572894589548905,0.020918355022456446,-0.006430227078980921,0.006953916707642903
4.37,0.0659614045189487,-0.16912220489606428,-0.7646011145798386,0.017534136383289434,-0.0037181279625021057,-0.0009402538919556186
4.38,0.0888740042216322,-0.16787045757430114,0.046051995223802766,0.036290492509053626,0.002765746926827739,-0.0023700994732391146
4.39,0.09319645999258377,-0.19685446303723217,0.013348635417720783,0.027407069588255603,0.004067843294031203,0.012914724236319735
4.4,0.06911398657286519,-0.18439388477633337,0.026466974438655325,0.012988724070573401,0.008267275021985158,0.0027297219405213865
4.41,0.06934794595421086,-0.18315249340095097,0.009481731128284996,-0.001443480471080321,0.0012539147549009712,-0.009481134386802955
4.42,0.06850194519324215,-0.19545676181019583,0.0030049354674782907,0.01662741329302261,-0.010849785757509708,0.010959067861122032
4.43,0.08733350880347984,-0.19860190073794984,0.011389317140456712,-0.006872309625907727,0.00044791198505006544,0.0005611566604960476
4.44,0.08376230059460389,-0.2020613935258797,0.05446225590519346,0.007534943372175704,0.008406279335137063,-0.003519532462786909
4.45,0.05742318147728266,-0.20438973737315194,0.008448095536413678,-0.00411880130969512,0.003059750323530243,-0.012335320890662407
4.46,0.07977747016309764,-0.2109351131394968,0.009854516823124701,0.006288616735984533,0.014114091864830513,-0.011282092731006044
4.47,0.08496590124834878,-0.19666286214035233,0.017512252135535936,-0.004086624121368855,-0.0074334336490313605,-0.002750176755891795
4.48,0.07447932411848919,-0.1940076344771461,0.0032331430406023847,-0.01754707728551661,-0.000669762618491864,0.001801537414362658
4.49,0.06935930226641095,-0.19545298607996686,-0.0009352448865631692,0.017877469725697603,-0.017049154591497626,0.01023782337630114
4.5,0.06055977768750369,-0.21062273120384548,0.0012271148338420124,0.007541234439014182,0.001091300627756247,-0.012448977621303594
4.51,0.06402094940832438,-0.22077393882677268,0.9003391018983369,0.008003103983750244,-0.010739018681415536,0.010807418027374954
4.52,0.07341348161728381,-0.2022940766537926,-0.046490533652805574,0.018496992416238933,0.004701837180850997,-0.014214874339439966
4.53,0.0751918065858178,-0.20142845911648669,-0.03205009750028301,-0.0022541447621424225,-0.001165750882971349,-0.0029307487445395146
4.54,0.09991187824448139,-0.21575815828743655,0.5015609756583476,0.0035997637238772383,0.01749392077302297,-0.006031279232097536
4.55,0.07747706283922838,-0.2009969380356921,-0.07393558396136796,-0.01843839170951235,0.013041260532368969,-0.018691305227777722
4.56,0.07301359256263551,-0.20002844149283272,-0.04793829428096211,-0.005798268597781086,-0.016700935651013576,-0.007307638928809094
4.57,0.06933242296620208,-0.16634564172074778,-1.1333259906752167,-0.006426415959175337,0.012335220088876485,-0.005983357560901169
4.58,0.08543416645225452,-0.1849641095836788,0.0268003706126289,-0.011596793524200517,0.01189784142252388,-0.021854493046233204
4.59,0.053610400527222254,-0.19933828351233324,-0.0019028628683479647,0.0030665112338286353,-0.020438289618165413,-0.004640381303013386
4.6,0.0716870967630794,-0.18811204699172038,-0.12898609513606832,-0.00775050149913056,0.010499112005034424,-0.0012321073884869558
4.61,0.06958632396483974,-0.19500762441260056,0.016745295537527613,0.0021810286995572158,0.0203711803189826,0.005946627322906996
4.62,0.05607767111007345,-0.19130695666686404,0.00508838919309155,-0.011967326147384567,0.01370505371888246,-0.0010592187348673465
4.63,0.06205937237088528,-0.18297093512586304,-0.007214402929990753,-0.0014294424222498023,0.001005566319945632,-0.005689099976874487
4.64,0.07257505544213648,-0.19514611533687468,-0.008558485619918156,-0.013084281717178778,0.01638486733485456,-0.010389352305825127
4.65,0.048241336498820585,-0.19849993777969385,0.004210325840758472,-0.013289970969786567,-0.001756325484799748,0.00018452363192215633
4.66,0.07430783689920081,-0.18970850336483863,0.005179153457887006,0.003233595479008084,-0.014391983687605631,-0.00917214316416153
4.67,0.06420946633230819,-0.18982162266425176,0.007730166982845109,0.0022180040953333475,0.023152073305296526,0.01941440012174207
4.68,0.08122677777306232,-0.18285669482598818,0.00865485546688348,-0.024992591357748374,0.0054217206547126605,0.012791826740711837
4.69,0.061205663198731844,-0.1820609135229959,-0.4564514905969883,-0.008804214376367353,0.0011322739609397994,0.0063216161906020155
4.7,0.058881609502688594,-0.20796340176821415,0.03595056846035882,-0.003405004473613001,-0.016175515429313357,0.005854738621474365
4.71,0.06785817041197964,-0.1875574838654852,0.025763234009125446,0.00961874335617521,-0.0011670961556220726,-0.0003979948529512665
4.72,0.06391742338331617,-0.1840105531457874,0.019342966362324923,-0.012167147907666176,0.004119166853175327,-0.0036997200623204883
4.73,0.07505798566240994,-0.18656192139092906,-0.003622833345273725,0.0032909427001715646,-0.0015925410500797035,0.016132672646471877
4.74,0.06278243453562235,-0.19511026533602863,0.0009573455764973864,-0.015612572769118307,-0.007082432048981695,0.007575549600859946
4.75,0.06564243372179333,-0.17464260060902528,0.0002678015735908673,-0.010084113892531405,-0.021992690971865538,-0.0018964825435752036
4.76,0.07149360629595358,-0.1691349802523397,0.006672304960021901,0.019186068984991353,-0.0020238275713703293,0.022555770781208316
4.77,0.08363622390839598,-0.1980589784235176,0.16332945124753603,3.325041403812179e-05,-0.004105674043481489,0.004467213630899518
4.78,0.06491336775335906,-0.1965070935904859,-0.3771170397668729,0.009389253897092088,0.006019125995631004,0.014887385481594732
4.79,0.054523333392918205,-0.1920071507325519,0.020435100795959452,0.007535224758555179,-0.012113333143507786,0.009270450472336586
4.8,0.06521359541105712,-0.19764782503230757,-0.1115914200207942,-0.014175461583075734,9.174976390063428e-05,-0.015883313234971847
4.81,0.062413543498045475,-0.19418398086767918,0.03430006634120073,-0.003272076285782112,0.0010082024046443733,-0.0007103956900087849
4.82,0.07090067767671876,-0.1986687927534664,-0.5098749060400269,-0.00014059816779383723,-0.0041555392941976105,-0.0006971474083985545
4.83,0.05813495205268376,-0.18839098246443284,0.04873641821488041,0.009622703248878418,-0.010399546150665642,-0.0011593053464007785
4.84,0.0846303667824288,-0.18514356914005414,0.05360304168547182,0.011040313882352258,0.00841425211621593,-0.0012594695054770535
4.85,0.0846487890264591,-0.1800771181839869,0.046019254998045156,-0.02195180048141128,-0.006641038965226765,-0.015968467204170077
4.86,0.08079790645135418,-0.20231815430278133,0.03364907816128355,0.012283823200523583,-0.0032977724864713016,-0.004791462334921034
4.87,0.06729085810343953,-0.20250165670595702,0.16058009339099497,-0.010659022048719425,0.0030802220457230908,-0.022112086939128153
4.88,0.06473971443871768,-0.17156881327287407,0.014875625044974666,-0.002325268308088547,0.003082587709980775,0.002472322427275635
4.89,0.06505028742448168,-0.19122531598133372,-0.07659787412085894,0.0038478390338897153,0.010786772354100516,-0.007840321362303549
4.9,0.07283948693678778,-0.18442375780828374,0.028106802896788484,-0.004385562444399951,-0.003596747876272575,-0.006983637189773144
4.91,0.06366812642047255,-0.19247268139503607,0.03760402587607368,-0.0034235774483186475,-0.004144664812690427,0.0105748191309128
4.92,0.07307444444839215,-0.18922342706623066,0.037218281116206134,-0.004927541947777666,0.006601744019496559,-0.014876586408285831
4.93,0.06455244506035154,-0.18945199604942997,0.01837089279033409,0.00444316320768906,0.010478275465828538,0.007033183538467132
4.94,0.057895298966243035,-0.17128990222533072,0.016757197760414615,-0.007235371100333815,-0.0036530680642125474,-0.004573636331595365
4.95,0.07764306645926072,-0.18611990137370296,0.016347423841190645,-0.010205626500989598,-0.0008573425815215374,0.01938487394481713
4.96,0.0680047974789609,-0.1782434436501367,0.016153064113150078,0.005610442795863775,-0.006310603342568647,-0.004995492211209723
4.97,0.06468248339234854,-0.1747897912198909,0.11221480891043777,-0.008547116060761174,-0.004815293343463024,-0.002472098718602312
4.98,0.06537555131742169,-0.19621735402183035,-0.0005663551587312861,0.011341148040901985,-0.00023104079689801335,0.009976896865550635
4.99,0.07504124381611557,-0.19320692246383803,0.022525164936301474,0.00400483727494973,-0.011553175352277208,0.010174793983517385
5.0,0.06407335167226355,-0.2088202228675859,0.017995348820578468,-0.003043340518475194,0.009234640459857944,0.009523787742460734
5.01,0.05423659946077192,-0.17981474921317708,0.04918956760691616,-0.003950644100727076,0.0010943039091087549,-0.01068069801252403
5.02,0.07087121225830133,-0.21555264136559515,0.03039278057189907,-0.011561398000854883,0.00176511072137434,-0.004348008478286154
5.03,0.07394255250070278,-0.19802816839466114,0.01481394539532566,0.0032166462880392393,0.007087236477728691,0.0031245332131383807
5.04,0.07451350702794114,-0.19362452519023657,0.008681954366576657,-0.002740038486762133,-0.007355657373093971,0.0038181499435848924
5.05,0.07861867814082016,-0.18430514174340293,0.006647627851297525,-0.0277379180821713,0.012273194377173866,-0.001268074603911001
5.06,0.08011545446448456,-0.1923110698449026,0.014870213786255564,0.004459851617641675,0.0017053076362095292,0.00596404023770302
5.07,0.05808605184635468,-0.18646701884886768,-0.18344590339067743,0.014392176702445112,-0.0021751449461720556,0.00034551765029849
5.08,0.07789700012399443,-0.1746098397192577,0.03675602501534178,0.005751284872731317,-0.004312896320732213,-0.006042863353652084
5.09,0.08145260476708936,-0.17754419986714517,0.02440995786252539,-0.006501405005874013,-0.004425311719883408,-0.007558775430549133
5.1,0.07009043739122113,-0.18503625492488524,0.03653217443615825,0.010473799016722216,0.0003666322000769012,-0.002738737897173848
5.11,0.08448837062513051,-0.20421641991765513,0.04802217145919051,0.008021096038424392,-0.004206360808629081,-0.011928306941292814
5.12,0.08484351918966342,-0.1719695715528212,0.011035298228299423,0.005745224573192006,-0.005302846444703366,0.0002904496088402841
5.13,0.06416843441211492,-0.19324098379947563,0.006036824896398181,0.0031068396237974275,-0.005596554972349518,0.0024317174318767365
5.14,0.0876187915443642,-0.18604834408665136,0.03352406674951827,-0.020990404031298385,-0.0007965628475640483,0.00449634486127988
5.15,0.06321140295940159,-0.18811839928665616,0.027271470083831108,-0.0060117068542743,-0.024795662489391523,0.007342768809949005
5.16,0.0906841642151722,-0.18823607631710768,0.011492414429360545,0.0002097712914256272,-0.043837440137372355,-0.00025810229241238593
5.17,0.07782612003662535,-0.18450317856093773,-0.03177881461058715,0.01299870727705158,-0.020430620259325624,0.0016578803072779382
5.18,0.06595116540372793,-0.19217374415921173,0.027577107000479183,-0.009566241515092371,-0.018940253606093794,-0.006272107429322785
5.19,0.08201360585547182,-0.20417927696964813,0.035341854615923554,-0.009466670585796689,-0.004198071777018441,-0.006904591361628501
5.2,0.07698298054809806,-0.17760651468833277,0.025514177376088795,0.0004381132458013493,-0.010331130335739683,-0.0028188546502377005
5.21,0.07734076678042855,-0.17573583936763754,0.03497842667130178,-0.017595641325256796,-0.008977559692900771,-0.019908345535450372
5.22,0.08980972576831361,-0.1747677711222289,0.023044422460315135,0.0077582603520512505,-0.02263849596739931,0.014610337200891423
5.23,0.08121507892169898,-0.18011471718223054,-0.11067166422711218,0.005563847971017114,-0.01208504594772542,0.0030076081839015586
5.24,0.09246463256229945,-0.2109006189810644,0.8501377372159656,-0.0019257823956512245,-0.012077053639116396,-0.0014070702001676783
5.25,0.06979049805191391,-0.19921873377213095,-0.028986759242455036,0.003866755244111733,-0.014927540171534115,0.008054051591845295
5.26,0.10036530965032195,-0.18808796127557334,-0.009864438735837075,0.001132990762731078,-0.014099327157273415,-0.009369555526230153
5.27,0.0923323956878277,-0.19512138960307643,-0.022962808426836796,-0.0064999814989994435,-0.001033591982438747,-0.012118234197408073
5.28,0.08249303984760951,-0.1799292553401685,0.007597474077754567,0.019754122998306284,-0.006778545462559411,0.0016698725809330915
5.29,0.09880689670185487,-0.17552222450726798,-0.007154303773289932,0.00600885584556498,-0.008673661764899148,-0.0034175462591532263
5.3,0.07461636632256474,-0.18264877759247722,-0.002628517703622168,-0.0162945560437373,-0.012300423871152509,0.010521780252145488
5.31,0.0682376897792841,-0.19005980304394465,-0.002048414448147153,-0.003415848941288345,0.0034700602881590544,0.011680001110772711
5.32,0.09118919901604185,-0.1987895427574376,0.0004930873046562772,0.01520785118771677,-0.025000092207728766,-0.0009487970110954946
5.33,0.09875111537211749,-0.18335589891027693,0.006301475682666036,-0.007662205477052306,-0.00468566822512062,0.026107724939077245
5.34,0.10450937340175581,-0.19040593976209846,-0.27201982315865464,-0.0045204622367650635,-0.009841775164922704,-0.0017531410958365728
5.35,0.08883239423437145,-0.1945428952099449,0.023991279242109902,-0.013842186857547664,-0.004214713120494633,0.0313805838878952
5.36,0.10331030342571641,-0.181369538521832,0.015941281168847878,0.010090708857051196,-0.0003017076062177904,-0.006169257885985945
5.37,0.09971763323936181,-0.19585657419680796,0.35425381032474185,-0.0019542337442976583,-0.005144611860848428,0.00989041993524347
5.38,0.08587296934776083,-0.20858881196839935,0.011422194575556871,0.002904780013550771,0.006745652621345549,-0.008313418650568193
5.39,0.10205292762927877,-0.1782211259106879,-0.011496008739955151,-0.031508187476843835,0.005166460341556378,0.01935407052702344
5.4,0.11422963499087557,-0.20007390623158905,0.00740856353953606,-0.025451508461204683,0.006646829468833198,0.0053940986118773595
5.41,0.11416458408153035,-0.2019331890628666,0.4743191377073406,0.00833234714945406,-0.011472430869164814,0.012548727881228145
5.42,0.10427361212673951,-0.17997022371934854,-0.03455484033637949,-0.011059299006450614,-0.006244757195455113,0.002775841521173504
5.43,0.1077563679942168,-0.17398983798548745,0.03147391455224244,-0.0007585520300849267,-0.0030405727500922674,-0.007646855430566298
5.44,0.09120228296680055,-0.17000118686763901,-0.03270816876643349,-0.013682266298370393,0.014065498472852168,-0.0007790488228451454
5.45,0.08660154735391815,-0.17820205046296309,-0.017167685283154085,-0.006035427078003695,-0.008604420332786905,-0.009613146958433995
5.46,0.08253437826411772,-0.19212944952574318,-0.012083873712078943,0.0010648903991021413,0.007854756085694543,0.005923525912814193
5.47,0.100437662603007,-0.17329531832896466,-0.024395092876590363,0.005409883827148174,-0.005774089307136519,-0.0004553098955807902
5.48,0.10207545366800697,-0.1710644754132984,-0.00349185444303049,0.0070780794300291435,0.008475321972225405,0.016985784474586256
5.49,0.10183285307703624,-0.1698119260605529,-0.0047610146663456115,-0.018935447744188403,0.00937273373887737,-0.007650527734247689
5.5,0.08394791947148751,-0.16528420890420834,-0.5061081202198036,-0.02578698559647936,0.005129339734573893,0.009871432773649259
5.51,0.09385091367122798,-0.18845279881906535,0.00599367737656843,0.004164367079684723,0.005643527032192784,-0.0055024867737163904
5.52,0.10078387857008703,-0.1899622763867646,0.024702548660913818,0.015563374094134323,0.00858788962013118,0.0038672019233048642
5.53,0.08852742406405226,-0.17668677720112444,0.00111398245113837,-0.0035569660381930637,-0.00740659899531991,-0.0067726795000629825
5.54,0.09875570726856014,-0.16910896298687114,0.013526262738823592,-0.007845220783060153,0.002599721320803331,-0.014503239598957206
5.55,0.10182872579303433,-0.164076338493316,0.013802594430092971,0.010547555503214451,0.0034329493837489166,-0.00943801435610261
5.56,0.11079959406854126,-0.16731689407740422,-0.0015461004826192652,0.011325436010273261,0.009703369331835294,0.013790338385630327
5.57,0.10708049654362692,-0.18474205325858714,0.0023224801376140708,0.01756564514347806,0.001101681928712202,0.01025704562158006
5.58,0.08894499256543113,-0.17159075893566333,-0.47951802431475576,-0.002798025355547915,0.008264701870730206,-0.0050961969902409265
5.59,0.09975365537225529,-0.1707726474265754,0.020519758844868785,-0.0015772597513137353,0.00027426310680079457,-0.024242254388374868
5.6,0.07385092962428681,-0.17188636195203572,0.0312913673559618,0.004198539033729152,-0.0016712496665088794,-0.028464094864422824
5.61,0.08738912396754601,-0.17905290118764192,0.008992063468563046,0.016015058883211104,-0.00991241579939901,-0.003231126320909856
5.62,0.09371651129716188,-0.166409625765731,0.009710727246395587,-0.013851174480884621,0.00554340822139218,0.0017512442224238162
5.63,0.07512244966334813,-0.18775908059319374,0.01338161892168578,-0.01277209892672207,0.0013257185386784769,-0.006591240555119273
5.64,0.084276587061696,-0.194456720332734,0.017389736312863474,0.014458460935071919,0.010628771891008854,0.00416478353423387
5.65,0.07909071845001972,-0.16882173098563974,0.021855056291247503,0.019998852933703,0.01016736850343823,-0.013668238914181494
5.66,0.0897805566313951,-0.15881603808306166,-0.21788515092438893,-0.0002292839760175162,0.012458236842595949,-0.011545936351550575
5.67,0.11250842451303225,-0.21712100630168968,0.7371216900413692,0.004377652294621243,-0.010362760175113282,0.010871397166831677
5.68,0.0898812988188186,-0.18949673629826244,-0.024712907468963978,0.016783320193895356,-0.009737835816128736,-0.010272490832276555
5.69,0.09100634197646226,-0.197150515144811,-0.024954031778218578,-0.016275368484082613,0.009562310565646354,-0.0008729961695209552
5.7,0.08109704410639847,-0.18046656054481502,-0.21036297963076916,-0.0026634904880455668,-0.016496774108562755,0.00033860563879501045
5.71,0.08700017977175528,-0.19641992558052754,-0.0017658558749739438,0.01659954071316253,0.00907915683620289,-0.0145977152311061
5.72,0.10607104996664538,-0.17366540446289183,-0.00046301161592435334,0.025883446431430937,0.0017539074430055496,0.00011965645325923667
5.73,0.09728503148508288,-0.19974088042687874,0.9534383199463039,0.012250765065729053,-0.0064562817223869,-0.014811082181794081
5.74,0.08702529376032464,-0.18044567300022182,-0.045460473671393706,-0.0008078946029552916,-0.004148614830316437,0.002374125568085956
5.75,0.09186918551458637,-0.17717284299691624,-0.026204636922239656,0.018635295826332415,-0.010539874863541882,-0.004199686793690307
5.76,0.10156580968767462,-0.1727084926535202,-0.04763319083025415,0.012519501778572526,-0.0015758972629804227,0.0038538906719222583
5.77,0.1049496877881693,-0.18152200760629106,-0.020010267592923597,-0.021482689102585134,-0.0014248544968421357,0.005240847195940037
5.78,0.10549413273227931,-0.1860142256443879,-0.031731586179984096,-0.0006300222682359326,-0.022136608669577767,-0.011563013156501673
5.79,0.0909117606039905,-0.17601525560088602,-0.029382637780780832,-0.016238640511949096,0.0031463892139017135,-0.018770402227894736
5.8,0.10171023531950196,-0.18637815481742495,-0.14289801854528802,0.003718503981114068,0.002322455282559933,-0.008149307689593625
5.81,0.0764275789169337,-0.18484429168672462,-0.045184846279533245,0.007874910931543577,-0.0005104032166266606,-0.00433497075576514
5.82,0.10255710544735028,-0.18914012281647727,0.006509394136263783,-0.015788299566508547,0.008545473796237622,-0.01538568402160711
5.83,0.08804731885487693,-0.197007303252735,-0.012579620550633091,-0.0153722181792278,-0.023375713060921954,-0.016404142182173072
5.84,0.09245061517778817,-0.17756146641476678,-0.3778532944228295,-0.0027751328887942236,-0.019226993981202218,-0.00047304961608708685
5.85,0.07960102409633021,-0.17653044203581755,0.19416469080666096,-0.016025982960686223,-0.0059905878614805105,-0.0073986366099725335
5.86,0.10669516382019355,-0.1709185650262997,-0.012227410783037311,0.00272210223023877,-0.008628842009555718,-0.00622339799435367
5.87,0.11686823008470579,-0.17872434153814248,-0.009055366230125659,0.006699496054044088,0.005663508918941894,-0.007440028807260397
5.88,0.10694812798727817,-0.17485672688351864,-0.010302434807742115,-0.0067399816960186446,-0.004565155024035008,-0.01143018718192422
5.89,0.08211601612799883,-0.18424523774298346,-0.013394361811836083,-0.010501176390637431,0.0008782232253235394,-0.0014287011021306044
5.9,0.10934561624859525,-0.1730745622714634,-0.01818552198621598,-0.018913058743118428,-0.0029040970511568314,-0.005675950326456586
5.91,0.11020988368498168,-0.1820902253303965,-0.0010623747367233347,0.00169124315769726,-0.0024173179887250346,-0.0067706944200123555
5.92,0.09973119823669092,-0.18404507395372569,-0.010068580335729976,-0.0026809003556992833,0.0048890904112724705,0.01971492847515091
5.93,0.10644361267640608,-0.18574382691326422,-0.01796229305655315,-0.011939721889050816,-0.017617891354066648,0.004295884392923385
5.94,0.1083456615499373,-0.18912940992157642,0.00692077665061815,-0.017887616125295526,-0.003294339443104468,0.016724218666180176
5.95,0.09084154036250423,-0.18786571897576126,-0.01870995339471425,0.005501731446810085,0.012322609538611045,-0.016885410589253802
5.96,0.12981574739441087,-0.177832194139377,-0.015015028966034958,-0.011324546501637087,-0.014264805479951863,0.0034425122309490993
5.97,0.1057882183375532,-0.17939319999394124,0.7103972004307159,-0.015203803660355491,-0.003041839058328915,0.017043071307080777
5.98,0.11473284636266645,-0.18083880160016477,-0.05230788018259521,-0.01301737518441316,0.00048339574777469217,-0.020751295803463396
5.99,0.10773364731086307,-0.16505045667474522,-0.032934335737702915,-0.027033770085692133,-0.0004690049605433973,0.012985812564890965
6.0,0.07599893296231994,-0.18025502637187227,-0.048131942363164225,-0.02454208089836136,-0.004405489781698054,-0.006770915902770336
6.01,0.10342107416576928,-0.17825475021040116,-0.023781747476596202,-0.017521874435529196,-0.012418363803098888,-0.00872927690194204
6.02,0.10072874652563481,-0.17690196785905754,-0.027291524528800182,0.008610979493198709,-0.017281142306237174,0.009727455950113487
6.03,0.10442436674239011,-0.16675283104600458,-0.013857690198687904,0.011420273800408096,-0.008922642451049668,0.005604891440068138
6.04,0.11555862468423239,-0.1734512310428836,0.5184123289439797,0.004892283854885517,-0.008645914299130024,-0.006624238022819521
6.05,0.09757897316083818,-0.17808029345940457,-0.05674128245740169,-0.010347089010448767,-0.007561953994526452,-0.0094944240807204
6.06,0.10024356500224996,-0.16805555802258493,-0.06474691360190436,-0.0019323279838010968,-0.005483174205118476,0.006950561420149689
6.07,0.11196307636042194,-0.16301945336838733,-0.0643490864820667,-0.003500847571705427,-0.001336985860847034,0.010321505727982985
6.08,0.10389854144139482,-0.1581537950342506,-0.035140650570573195,-0.025858143756728097,-0.009120249760739916,0.00179281948776914
6.09,0.11572718029087103,-0.16597005248429214,-0.05045607967055994,-0.020359684658315426,0.005220009259223016,-0.014833875494464506
6.1,0.11473982662962887,-0.15809523056578725,-0.032932510208371665,-0.006825113000701943,0.0019850705720404448,-0.0033331755337591574
6.11,0.10549272709212826,-0.16607051228431255,-0.02570543586602951,-0.020427863548081772,-0.02072101136133861,-0.0029651314185307255
6.12,0.11460729127035241,-0.17356480817132802,-0.02896971689994226,-0.012985430690360969,-0.0017000638476353776,-0.0036440759419805544
6.13,0.11852344363885446,-0.17612382402311913,0.031634354488645815,-0.0063537319604925774,0.0040782873592780195,0.015192042477928809
6.14,0.11061654416331211,-0.17473502314678366,-0.01139049115344129,0.0023390192423700315,-0.005039103229805224,-0.007988315203924276
6.15,0.11142303097643876,-0.1882561081770958,-0.03093529213242686,-0.012438170089757948,0.008279814837394168,-0.0015940261825831952
6.16,0.10918846990137752,-0.15920539693062358,-0.0525609246796777,-0.010262433244415739,-0.01027658938645168,0.0018654576439436038
6.17,0.10543503407607442,-0.1512322658496526,-0.036230944652014034,0.0049383245580872,-0.013455130606400464,-0.0038205052885954545
6.18,0.10956032573521174,-0.14725783685409183,-0.028945390283757724,-0.010096463018155682,0.0014808335377430675,-0.0020211652211934643
6.19,0.10253641939864486,-0.1556746764177448,-0.05024271693599896,0.0029535067926703615,-0.013580162674687089,-0.005459445524938327
6.2,0.13458724827425755,-0.17026032379149392,-0.012363996451617808,-0.01879700712968543,-0.0027546023325652714,-0.004987257450052594
6.21,0.11787995040008412,-0.16019203607589416,-0.15104585377486482,-0.0021013393285242705,-0.001640687959814896,0.01674228093399234
6.22,0.11238748619582883,-0.15239116788604964,-0.03635496901077391,-0.01956379747579591,-0.0033511880095059812,-0.0007658771843974965
6.23,0.12263550803057477,-0.14515018803892235,-0.02795681165569366,-0.014510805632039499,-0.006859738040420751,0.011458779610310933
6.24,0.1272072339391274,-0.15110414855073306,-0.017076615169928255,-0.004764336981584855,0.0059798608537109605,0.00857030452684037
6.25,0.12328192034655305,-0.16366590922343752,-0.021407655518967405,0.006018455251548205,0.012599196226349928,-0.01670792721416493
6.26,0.10617652414955925,-0.15379622277701455,-0.0366312254649503,-0.004833382419170756,0.0012083911957578132,-0.001450481362872937
6.27,0.1311722693801616,-0.16273648698542736,0.5947269824059391,-0.005601465907957544,-0.009863895187012356,-0.006777159223995146
6.28,0.12627094967281619,-0.13082367885301494,-0.046733792268917995,-0.021189378534173506,-0.004657596467136898,0.014636619729615375
6.29,0.131236535441292,-0.14990663678369237,-0.05124346542426235,-0.022116908055602257,0.017516108384854148,-0.005494321522640853
6.3,0.11529640529280673,-0.15744650487176715,-0.02311830532948226,-0.01675740956028086,0.011776748170543132,-0.0003973312726698185
6.31,0.10573619420282893,-0.14055718503622674,-0.1401267340049057,0.009929814760301817,-0.02634059917891466,0.0014864116908861347
6.32,0.08689061676571244,-0.1501694108859193,-0.026358091310879662,-0.011104534314380191,-0.007794327758994482,0.001144070093514331
6.33,0.09814451202696549,-0.16970414968136258,0.025083872154643687,0.0011850861183302693,0.007885785140728942,0.011689423553703242
6.34,0.10415077350711707,-0.13908154059727157,-0.030749346756732854,-0.01725458923018057,0.0013443243270840925,0.0036014435727474573
6.35,0.11637095001121113,-0.13417454713433566,-0.04340263397114355,-0.02046388354415232,-0.0036713147343010273,-0.004129892308361792
6.36,0.12505618352028405,-0.15425643525682894,-0.018501048742735317,-0.0031001848488664465,-0.013463056363562863,-0.0019341718841177922
6.37,0.10780386264982998,-0.14161350415142757,-0.03673174555353538,0.0038220797443145344,-0.0035437051670637026,9.451293520739996e-05
6.38,0.10091353708687287,-0.16747758497838644,-0.019107772325842168,-0.030843058549811703,-0.0014847258242341,0.0014934009702553906
6.39,0.13070239933968414,-0.12736951879275318,-0.040975239392724065,-0.023590882929770227,0.007383583497258341,0.006109817529531011
6.4,0.12169788897096272,-0.14357210197610054,-0.04536173954976283,-0.00988653966829055,-0.012704191324817364,4.163569259460248e-05
6.41,0.12691618947554914,-0.15003759324662727,-0.02787230290418175,-0.015610039924777911,0.007197922663187511,-0.00796834406703532
6.42,0.12026270038218102,-0.12375445540440626,-0.02090851623636082,-0.009705424904473169,-0.015443312357426787,-0.006696383921995988
6.43,0.10898568868936191,-0.13836723121522235,-0.019117759181165858,0.0011675027111224812,0.001993870422820954,-0.008013411865410311
6.44,0.12710740817122645,-0.13260922351849852,-0.0019735288926302393,-0.01041295829416907,-0.003651974663186491,-0.00950285740142908
6.45,0.09906656800263025,-0.1279380679737144,-0.030947155756033462,-0.022785614159705515,0.009951255461362695,0.00826242542141554
6.46,0.11642806792344558,-0.14923450459187496,-0.023543451897333863,-0.016567239789428145,-0.003163557396302925,0.005011549770611426
6.47,0.1327350889313218,-0.14596721967494425,0.7932881313202572,0.0017670898458447583,0.014491051220685225,-0.007632610934445761
6.48,0.1122673424694485,-0.1311105342098704,-0.07242764595470214,-0.006214624396859137,0.0038575347706223664,0.012569321109076409
6.49,0.11314166407846431,-0.125781262958533,0.19235026668865646,-0.00571647899639958,-0.017755884670904748,-0.015474136498166903
6.5,0.12248693887697118,-0.14920141842180462,-0.08711687938781192,-0.01111288167421378,0.009372647762586842,-0.004290281341161197
6.51,0.11947044228683275,-0.14375222140076643,-0.4311330011135411,-0.019005341305659916,-0.015106667030316805,0.0007206297834878653
6.52,0.1338558348910618,-0.1310792634093042,-0.03872485154293023,0.006876411825200563,-0.01908158997901508,-0.007858516476513661
6.53,0.1266003389881026,-0.12089454095668138,-0.03347912082305665,-0.02461891222212786,0.008931499074596751,-0.005874231353554667
6.54,0.11974697111864152,-0.11034597400065417,-0.4647786080052741,-0.0063377528943176775,-0.0004481965134716516,-0.010885371560009412
6.55,0.11430042423011523,-0.1089364055648646,-0.1569689856614512,-0.008664457981187864,-0.0032123123922148853,0.027507945109982154
6.56,0.10807133095547408,-0.11702428228498928,0.003876980052844115,0.0012003165081658901,-0.014643467873144106,0.006515549954459035
6.57,0.13219912602248554,-0.1292082485431938,-0.020149991366826745,0.00028866574547427174,-0.010372537597272847,-0.0011026454106035982
6.58,0.11983589695430918,-0.11672745794647119,-0.022544193154661205,-0.004905283662003959,0.019126205744513416,-0.001720239265418963
6.59,0.10631302162060977,-0.12227861830808785,-0.01017912943328331,-0.01980044109367532,0.00399662681388994,0.009017262770539181
6.6,0.12009173609771376,-0.10368054307335509,-0.022461351125645623,-0.01840068440874624,-0.011058200738626435,0.0038039950971492952
6.61,0.11295864528964614,-0.1403178397261949,0.008868859984155077,0.0010850411030398801,-0.004210266477711346,-0.015605386896419157
6.62,0.10748287306589682,-0.11697511308256917,-0.0008989395302600768,-0.004188548230065944,-0.005690941531430196,0.01548937167170371
6.63,0.12411147656312575,-0.11934253045675043,-0.015640032037520946,-0.014965590711694246,-0.005936216353821086,-0.004141315037247661
6.64,0.1196279628294362,-0.11598537820181119,-0.018837097643593863,0.0242696476212068,0.009225821523264574,-0.005960510961019771
6.65,0.10646506111728592,-0.11929188753324284,-0.016830747774598025,-0.0026257191275435195,-0.013526929856119876,-0.003717182612247364
6.66,0.12628402964780633,-0.1277336609827485,0.14203140636440503,-0.0043035789064944825,0.012665311014433451,0.011218984847107318
6.67,0.11540235901515124,-0.1191111628365029,-0.03218694255073503,-0.01395692350589911,-0.006973030290653099,-0.00016171020007534976
6.68,0.12320903608047809,-0.11168311441663129,0.1668070293601879,-0.007765809719130462,0.005822550310575769,0.0020293766126021277
6.69,0.12431332523276527,-0.1151105369050381,-0.033182908847223205,0.003956759466881199,-0.01717949282409693,-0.0028027870374096003
6.7,0.11881924956146578,-0.11479518712728083,-0.016652626403484236,0.0013526493756809057,-0.007227461994976842,0.005280218805729292
6.71,0.13218890794987498,-0.10818228016213484,-0.03020495947296772,0.03132292544635994,-0.01159164102187907,-0.001604588173168658
6.72,0.10505150122402697,-0.1093117290570866,-0.028291791142234894,0.014708663704566013,-0.00879617856191962,0.021952097456394266
6.73,0.12518656561683175,-0.10493825442323032,-0.026693576148207943,0.02356290127727787,0.00042338913646370636,0.005424046915769754
6.74,0.11452560863100984,-0.12509990084922876,0.00396220244690659,-0.0015242755921771965,0.0055512799428997055,0.00601232552440072
6.75,0.13514910883407832,-0.11890734184130089,-0.03846773903569159,0.008498382684900389,-0.0050510215102984694,0.008665379434998132
6.76,0.10431186438246363,-0.10179940097291232,-0.028721275022820784,0.013237422395761329,-0.0021942839718381464,0.002240246810647055
6.77,0.10799708376385694,-0.12400762015750819,-0.019087898564694065,0.01601840342177685,-0.004871017243890538,0.002932747460501815
6.78,0.10546972754110429,-0.11404408953503375,-0.022720113473363963,-0.0019941016188421675,-0.01629917551882794,-0.013397519192238099
6.79,0.1440740293795902,-0.1331171828354712,-0.01371790665529804,-0.00503350046663623,0.004417050170872412,0.009488485885380968
6.8,0.11757637612430204,-0.14199401628645503,0.33714750032122187,-0.011751302474523048,-0.009878977469593557,-0.01565067664734455
6.81,0.12597688171153543,-0.13986337449661293,-0.0220239816179397,0.0077757560860365425,-0.005416196148904186,0.0012771906737822545
6.82,0.13531516028053223,-0.13736709166020616,0.30956362196800796,-0.011371223606791851,-6.779042143331519e-05,0.024181507259223103
6.83,0.15138296688346467,-0.11498068028017963,-0.05470279401767316,-0.0018672218204916222,0.0055235712506722535,0.006500082556514965
6.84,0.13671868749234908,-0.13425738525257394,-0.037583404436420886,-0.000520679133134013,0.016424458489317457,-0.0017752849236452135
6.85,0.1362289335174572,-0.12268360497348828,-0.02953897739363158,-0.0161291272046232,-0.0006571972382358725,0.005682677259195177
6.86,0.13817213658282068,-0.12396372693718319,-0.0434356343966452,0.0009717351322694744,0.002097907658995373,0.00831631798514883
6.87,0.13623065099584372,-0.11547584665425231,-0.03208994036515445,-0.022665006963865177,0.009502408986103723,0.003963146360770525
6.88,0.13154735710668186,-0.10229954328599648,-0.053318524770778586,0.002974631940830308,0.010677208784603206,0.008426371846125873
6.89,0.1298234110471374,-0.1253548255424191,-0.025925048819177423,-0.0011167437173859717,0.0010803525382087184,0.0010428242059569155
6.9,0.14477998870471598,-0.12023441590638353,-0.037710399686232014,0.005582672520571352,-0.0033490362515266013,0.010740338064973095
6.91,0.11083289109305297,-0.1323739582837091,-0.020388469723898156,-0.008199467252009787,-0.01486162622001325,-0.02296705425084839
6.92,0.13749365768449673,-0.1368032447621758,-0.03838439918402496,-0.025057059935435434,-0.0072504961125125,-0.024138714858272944
6.93,0.12836404297693518,-0.1328749123834056,0.6437941535899111,-0.03529415752808661,0.001351821820645499,-0.009278709972362463
6.94,0.12557625818297258,-0.12194241826504151,0.3848423565239602,-0.0229880333023767,-0.002299378103627827,0.0028907057541155976
6.95,0.1501265829822955,-0.11707888248751525,-0.0733404459114353,-0.004041770752556574,0.021785103006417644,-0.00644578705806147
6.96,0.13563293642244956,-0.10943581256284288,-0.08735267920755385,0.004091523567905361,0.007900865555201881,0.008784302151312175
6.97,0.12083770513269691,-0.09256576917546969,-0.04944333466926364,0.0010595529674633395,-0.012583135223807964,-0.0022168634175591243
6.98,0.11902121604763449,-0.11390690684503378,-0.07546090299944305,-0.007979525492642869,-0.0017128447166723576,0.017110766109837923
6.99,0.1143337275145059,-0.10881631826313667,-0.05456284143926774,-0.01330963788096018,-0.023612612942736914,-0.00896970349483705
7.0,0.11578867343707624,-0.10711272560807808,-0.058238804718040264,-0.01862738757070228,-0.011163110096172522,0.010063413126044758
7.01,0.13448040047961124,-0.09844812918481348,0.027295138601239232,-0.011683282718081844,-0.01945331154839995,-0.0031188639060335914
7.02,0.12942602685610807,-0.11440849870096695,-0.056874525460167816,0.012301905621397992,0.0028753121811428833,0.00854230961897317
7.03,0.12372411424402527,-0.09776208303220818,-0.05848964703711435,0.00938726720222893,-0.005130716471588716,0.008702664401616565
7.04,0.11524845098432968,-0.09892270421232355,-0.04661459265593003,-0.0030419456715155098,0.01138781746193407,0.005372533478764155
7.05,0.12762896091823947,-0.09836576783354846,-0.04835484473699502,-0.008830862088630305,0.013926691473752592,0.009580766413345697
7.06,0.1494485508230058,-0.10861901990008895,-0.04355130642001782,0.0051639956423412126,-0.018677064283514955,0.02757961506057544
7.07,0.1343384175168556,-0.11293034860501315,0.4571499752960595,0.00577766905931801,0.005944979802432738,0.011796015216200797
7.08,0.13645577879401136,-0.09885492216291088,0.18229504897697568,-0.013999039927731834,-0.007314791350493275,0.017647593970942954
7.09,0.13795124770304384,-0.09847441696904408,-0.0732669945208185,-0.007539068448180643,0.009992830372469008,0.004248321850074822
7.1,0.14421566671602157,-0.12424728523694127,-0.07895603850027516,-0.005435338394505414,-0.014970897038014165,0.0013133836446814475
7.11,0.1258279966823567,-0.10493417955335065,-0.08208774523058879,0.003060157529996,-0.007297998992856913,-0.012375140171428893
7.12,0.1251234386706016,-0.10480898414407269,-0.06540502080517337,-0.004188773721055024,-0.012179870264958332,-0.0018636839611942506
7.13,0.13588553146489502,-0.10615783087393764,-0.04257977352128997,0.015395801473434794,0.0017296454134695604,-0.016032433543103655
7.14,0.14412422588875753,-0.11875299426652625,-0.047829789501250636,-0.01163739837189959,-0.012236911917296447,0.008441420856761181
7.15,0.1262513885562454,-0.1324773227685739,0.22537074580937133,-0.019151973087118614,-0.002797246323169522,0.005046614424926921
7.16,0.13863968790307565,-0.10472350337472185,-0.06630195414965862,0.006379402528630944,-0.014139617362845603,0.0031333535301933295
7.17,0.13407957968855777,-0.10068979559745667,-0.07013877535303882,0.014517622231603095,0.007621620460471693,-0.0063748010967116416
7.18,0.14135827760100472,-0.10229689585660368,-0.05055590178326998,-0.006766333876057457,0.003301283423256007,-0.002153534393444995
7.19,0.13129832194729468,-0.10672118080927841,0.1335288615828211,-0.006904482030109168,-0.0002081429216526129,0.009729056271451595
7.2,0.14930163486197714,-0.10651887252966812,-0.0796872703888904,-0.002898671945270238,0.007693782896151143,0.0190034787590215
7.21,0.1276988754703411,-0.10346392350718682,-0.03955681061673599,-0.005676135592353839,-0.007352841079068264,0.008392298289647528
7.22,0.14773227531490957,-0.10408978714389072,0.44083261193151746,6.637735636159069e-06,0.002832777625221789,0.011073214609113678
7.23,0.13624418154955284,-0.10624293221672884,-0.0871428076285656,-0.0014656106885961846,-0.004252097657306246,0.002580134261457325
7.24,0.12478951103373166,-0.09879076324319255,-0.07143058213014844,-0.0005444061004434442,-0.0002624121929778291,0.008533702266490174
7.25,0.13659582879690293,-0.11044192155435177,-0.07809353609456976,0.007374884648085332,-0.001883167171442623,0.015597532391039622
7.26,0.13387838449851164,-0.10253952110293837,-0.0695485831901432,0.006533489079437906,0.005151148674562287,0.0017860177603269355
7.27,0.1391264773772251,-0.08877582070479342,-0.0712017609482616,0.028087379478283714,-0.010683251715459731,-0.004439543796295176
7.28,0.13268384785633988,-0.10086399448351746,-0.07219270681605891,-0.0057169728072541184,-0.0033488042823204035,0.013391991899749437
7.29,0.13325242078460908,-0.09885727317630405,-0.42232364323512034,-0.0069193400101998405,-0.011388699839666795,-0.005527581819030959
7.3,0.13097805689335457,-0.10714228545287488,-0.0502207684013425,-0.01394177821505569,0.006083009137465959,0.003290821221058779
7.31,0.11859194820504876,-0.11872308271702095,-0.03375390789521783,-0.007219354445923424,0.014733552643973191,-0.0205331775883763
7.32,0.13176565487720512,-0.11499679613061004,-0.032119196850062266,0.0011983605414980128,0.011335942775102328,-0.02427025366862788
7.33,0.11631676062194495,-0.08943161134167076,-0.8527367896286847,-0.0012456029380962029,0.013771148836525774,0.010250143569578325
7.34,0.13910858144336477,-0.11118752927869516,-0.011441231169035176,-0.015492670760253244,-0.007423678043299461,-0.012186040905156705
7.35,0.1441868552216661,-0.10148943316696446,-0.00341137807870769,0.00031752430924467893,-0.006001535380113146,0.004469398537885134
7.36,0.1386565030058142,-0.09834691417290663,0.31158235708006654,0.01564761744664655,-0.009960787155531612,-0.012792972429706985
7.37,0.13838733616869417,-0.10246951704593106,-0.02560958366441889,0.014699841273850472,0.011095287500806307,-0.004705008305516126
7.38,0.1341027952037508,-0.10113356184472137,-0.2298375571327755,-0.004618734324661683,0.02607622594621172,-0.03422985918554542
7.39,0.13042876613228588,-0.08809320844124363,-0.021409921126119426,-0.004514127950264842,0.00355282369618501,-0.022672181107085992
7.4,0.12289674857923291,-0.10258726601517033,-0.409845080337842,-0.01623708680377712,0.014305330942458627,-0.0011609316642906885
7.41,0.142144794219049,-0.09824104680286941,0.00599437653793411,0.0015212481790093046,-0.010924506128166159,-0.01795205190651191
7.42,0.15840547783470096,-0.10845326909816579,0.4474213738198464,-0.006881131883772767,0.012546373340119155,0.0010418021399561956
7.43,0.1310165198576996,-0.10445914181058008,-0.032588778928749826,0.0019447228185845693,-0.0003505960418590287,-0.013094457557679084
7.44,0.12510676357212214,-0.10878012780190423,-0.009211904304314783,-0.01691431098612613,0.013423036099891728,-0.010366192840997166
7.45,0.12401521825716494,-0.08157008384935618,-0.01631104277982047,-0.01394182832696931,-0.005629700917264661,0.00042632479927514916
7.46,0.1295694952166978,-0.08919713451290713,-0.014716571758794789,-0.006409131746184472,-0.004702561154744422,0.006137473914085905
7.47,0.1243519040455325,-0.10127016105320504,-0.0252325997588917,0.028240664049142678,-0.006484033504672645,-0.010099805003734254
7.48,0.13450283773028765,-0.11883589925215271,-0.026192118204804368,0.007985979602016207,0.005206789477919625,-0.007541848750047074
7.49,0.1307742705009092,-0.10849709805884661,-0.012012928210898695,0.0009728734770308575,-0.02294837835627876,0.013732419818109983
7.5,0.13075693248521061,-0.0976579114308456,-0.0005426299366792092,-0.006662005840536573,0.0008072009307355651,0.017588290750499065
7.51,0.1264343305259022,-0.10937044921850166,0.25295504282909015,0.017036775056102297,0.002971536743431219,0.003934830191114993
7.52,0.13774975969759884,-0.1060867567190927,0.5423512781150045,-0.008327757594640044,-0.007530793885255269,0.012191799310172273
7.53,0.12765745753243274,-0.09803139899773151,-0.06785287226644265,0.010776645914977456,-0.000344953516371695,-0.008095938124605961
7.54,0.1430063106726934,-0.09436649429161403,-0.06161869999053071,0.013501326508986463,-0.007950718613860486,0.018824551194716488
7.55,0.12142633727219383,-0.09261090635482189,-0.05232581686383491,-0.0006294743494036977,-0.00350233745613854,-0.004616801261882946
7.56,0.16286442341011767,-0.11650412567038458,0.7394497721509823,0.02343648452316502,-0.02147281642020198,0.0040597517279125405
7.57,0.1340141198081998,-0.09912991808940641,-0.08743681554650147,0.0005532565629737286,-0.008136921117094409,0.0002830911979988483
7.58,0.12257187224183518,-0.10735400646902803,0.06080881310455292,0.0004488043652817542,0.004041633653396768,-0.002809461637530333
7.59,0.1400655625910567,-0.11304268875495399,-0.07011858558415399,-0.005799079632024797,-0.009441962753467793,-0.015613533096889882
7.6,0.14825659360033044,-0.1173819879820001,-0.06759387993572938,-0.0081965594280049,0.00915922769703593,-0.006582976689337132
7.61,0.1465924957404473,-0.10933634612890031,-0.06295376364703675,0.005290656629754163,0.013820044846179625,0.0003443643279857154
7.62,0.1196306398040546,-0.09763325662466607,-0.46881451009127445,-0.0024514615455093285,0.0006364966261992967,5.8266995540369937e-05
7.63,0.1360646768558175,-0.1160608627325419,-0.027286275479374882,0.003589777419421051,0.0038850147404668025,0.01061431051184584
7.64,0.13614790442919336,-0.08737678809924197,-0.017048711210057625,0.007599195552511026,0.009446706279113884,-0.010922021592479594
7.65,0.12706177214183062,-0.1134019517786864,-0.021778707734960066,-0.016117256173043513,-0.001454479141917429,0.004530542325867051
7.66,0.1377175697604968,-0.09359693978892678,-0.03511163483141127,0.015736982223122233,-0.0022961967458593685,-0.003434028786483407
7.67,0.11539097133443954,-0.11516173876121316,-0.026674680838364058,0.003483538915336628,0.019687388707844776,-0.0010830316548510618
7.68,0.1360759370860653,-0.10899968424218107,-0.03177223909735917,0.008654503036165145,-0.01725666518880526,-0.0012631714159625916
7.69,0.1492278701929141,-0.09485463874281033,-0.049375810680965276,-0.002633653003730468,0.01979450180841126,-0.009290686470735856
7.7,0.11013062295110754,-0.10259986092005323,-0.01957863156491412,-0.01567281927662914,-0.00262453075408976,0.008161930846154852
7.71,0.1453072189100708,-0.10535600448337704,-0.03270067955759675,-0.0037812612633170177,0.012471833688417915,-0.013734636025282269
7.72,0.13382874203901735,-0.11519066838108163,-0.0202733458090539,0.019890714353075725,-0.012152862909328859,0.005815553921907047
7.73,0.12107253121522199,-0.11392121625271838,-0.09409322888231242,0.0054913034696616805,-0.007212344613079347,0.003259637604297315
7.74,0.13819656697198246,-0.10659674104485899,0.5317597721340045,-0.011509323987235644,-0.0025819420076822787,-0.005282545115306328
7.75,0.13031435890929124,-0.11394835567162469,-0.0663331451569199,-0.0006568003979760687,0.0004943316250196703,-0.014520650574496322
7.76,0.1069852573615377,-0.12019809655941852,-0.06101983932873209,0.007109691249275707,-0.019590998511869948,0.008889633095712153
7.77,0.13586043231369402,-0.09938467614461213,-0.05250510627295358,0.006272060690724833,-0.0166421677451579,0.003250770144525481
7.78,0.14410725185079795,-0.09464726192104007,-0.050865861282463565,-0.010307566072485804,0.016365267938044818,0.0015310821926269231
7.79,0.1294255792307018,-0.10047763457265806,-0.0430041704633735,-0.012123944597246467,0.0003842869152123529,0.00993098374870053
7.8,0.14842385207633133,-0.11004691355587681,-0.04508223684093163,-0.016405374876631934,0.007212403596281706,-0.01127981637706508
7.81,0.13381662525653346,-0.116637599550829,-0.02871896820308926,-0.003165430301511901,-0.015442699129064548,-0.008651207275879839
7.82,0.11911788522982321,-0.07622948603093171,-0.7596246695557718,-0.008811635325423605,-0.01640995026989792,0.011946712040087178
7.83,0.12947844904473024,-0.10915412750367824,0.014364013273220825,0.0053639839256094295,0.00621801585450532,-0.01062095487740849
7.84,0.13505866641270578,-0.0976327334126822,-0.17252614452281606,-0.004692533392811388,0.0023724658037817285,0.012745148744634838
7.85,0.1476200950836536,-0.09951934811929689,0.01424777545667821,-0.006041327021081304,0.0032499285278065042,0.017958609543292172
7.86,0.14059092721188332,-0.12190516823524826,0.016313767160958254,0.0029624226201149873,-0.007230184267229592,-0.003890494348442043
7.87,0.12875907092964356,-0.10157224188095643,0.2117998475295232,0.00979481059432961,-0.004840398909816373,-0.01034213676796468
7.88,0.14726644152145754,-0.09684420761348143,-0.03086318201931201,-0.004738916263313492,0.002135456078410479,0.0047644837993661175
7.89,0.13336382138972372,-0.08972158957650617,-0.0060538778281363425,0.007437495933333039,0.0006248819908199873,-0.0188263574460609
7.9,0.1508797668631748,-0.09219186467341786,-0.00991809639985312,-0.005231462126677043,0.0061050581531414145,-0.005791954152113561
7.91,0.13645998847047403,-0.10307169816584463,-0.06951397445177829,0.018281736096610622,-0.010527000670666163,-0.00915723792231522
7.92,0.1365141377807214,-0.11481138856376122,-0.01937622958724078,-0.004505535688594318,0.005148165393024287,0.002885344014542015
7.93,0.13941945608294937,-0.0911837634234457,-0.1691847162727863,0.0024588809639266634,-0.002929077413763805,-0.01315539728185889
7.94,0.1283934274111088,-0.12961187986594308,-0.01244174996845656,-0.009115990654687038,-0.008981669286238229,-0.0041722293090517846
7.95,0.12992061287404472,-0.09295434094295409,0.009344143666696805,-0.02026355418250611,0.011364558038088989,-0.001942564560264291
7.96,0.14072449954098237,-0.08720585013389923,0.006384605651241964,0.004156271727061026,-0.006650213889057892,0.0019480787156187706
7.97,0.14061285027195522,-0.10547288436451652,0.03269817741222274,0.01055204464820583,0.015558175505399466,-0.003798228179482048
7.98,0.13312738179241018,-0.09686936440748467,0.0018886306134200462,-0.012517028706658417,-0.012246054862175247,0.010933724075181513
7.99,0.12218251674051252,-0.09064881859521565,0.0004532719917575813,-0.01224281058896335,0.0031956595444760506,0.005233714083834601
8.0,0.13231369750681352,-0.1162766756467357,-0.39895218407985855,-0.0031327235943710736,0.00738214643001874,0.012821326143018265
8.01,0.12593193586545934,-0.1101694942831729,-0.0010570697471926661,0.013647089425601142,0.007051872885031271,-0.008914009282694745
8.02,0.14706644292597215,-0.09225809519877022,0.006923066717121468,-0.016489975516318745,-0.0037002237038253538,0.008135936824274211
8.03,0.11592085152356323,-0.09748185395904689,0.11478931090536501,-0.011800625945183307,-0.004154457538678663,0.00011135264041082513
8.04,0.15474429047030347,-0.10200441718242331,0.011520186067892702,0.008885008316156552,0.004405983443901705,-0.0034655841926824154
8.05,0.15923809667320427,-0.10061504051391351,0.016428192212277502,-0.008357447807523172,-0.004578144424081644,-0.011536909148937836
8.06,0.14326598774745722,-0.11005341974199223,0.025271839745308274,-0.00671622438217972,0.002751718848111922,0.0047568142184845385
8.07,0.15154289347483027,-0.0889397564903702,0.0018294405490932742,-0.011075346282748966,-0.008910362633030805,-0.019105168275755733
8.08,0.14588640719467086,-0.08690173891706258,0.012656149934014042,-0.0009337421983698999,-0.0034312807137120063,0.008360901386950986
8.09,0.16676877829786027,-0.09887985306088036,0.2338739030096133,-0.014861177352184347,-0.0032320270685627607,-0.008126789516724773
8.1,0.14164969182346882,-0.1073993864773488,-0.017609711537614176,-0.009238295963136328,-0.0013368346012984462,-0.005162683067661372
8.11,0.13887680713187323,-0.08818039205556802,-0.006041905215078099,0.008722748872301853,0.004321808957929076,0.015372318339072039
8.12,0.13897145220274834,-0.08199011081678616,-0.017588086066104066,-0.003965331637861493,-0.007311518636462733,-0.005322593307488396
8.13,0.11748459235201662,-0.0988101216870572,-0.04223141230322735,0.008320922480841559,-0.00030628965490105435,0.013057189628135705
8.14,0.12602867161577563,-0.08240286143321128,-0.016292849306408858,-0.0022214150779849102,-0.0050234671330701315,0.004509627280063838
8.15,0.149423208519601,-0.08587084536352016,-0.006985087537787822,-0.003977097210080089,0.004216189771648814,0.003802037715568923
8.16,0.1416361450935886,-0.09582333448433461,-0.010447563652612126,0.008469573541748394,-0.02005609811250539,-0.0031281312523148207
8.17,0.13466993711937636,-0.08526577618089823,0.011126857027632893,-0.001241346066581283,-0.008871771575350323,0.004226144214726075
8.18,0.15676637004156976,-0.10356669395819487,0.013642047852411285,-0.01862508867245769,0.0027444279049566762,-0.01911633591435324
8.19,0.1473550744330809,-0.10042624087908225,-0.000995979075960651,-0.0013810562511581393,0.0233617690640035,-0.002717902198543389
8.2,0.12538344891718947,-0.11997357411553794,-0.11374100693803946,-0.020926843491592143,0.01709787704526795,0.004608149572110644
8.21,0.12814815740785773,-0.09212302418808882,0.002998951031384124,-0.006520724645432672,-0.007642518252651491,0.02521496337794347
8.22,0.1415774369631176,-0.1069374544691346,0.4357526866965632,0.0168802863947034,-0.0011172543255206554,0.00518359877370381
8.23,0.14062558041321677,-0.07882061185320498,-0.021571670652832407,0.019226286453586247,0.0058087591747023005,-0.003927057665499693
8.24,0.1614578102586817,-0.10330870603184099,-0.01646448717944088,-0.005456831501910686,-0.00628083562668072,0.004734524876678616
8.25,0.1462079393947837,-0.10787904828317822,-0.010662364793791713,0.0024624314157268845,0.004371282089159845,0.01153945537032799
8.26,0.12592078640891852,-0.08515979078912023,-0.016776703108610326,0.013306508562615196,0.0028785487511490734,0.0049615518242258575
8.27,0.13327762334745308,-0.1105977326987674,-0.004013622914613454,0.018441136859127318,-0.0016327727194140468,-0.001957115200390127
8.28,0.1222136882706649,-0.08559503916451155,-0.006951495320867879,-0.010446930282970234,0.0038034036515966485,-0.00740134550488921
8.29,0.13038739510291442,-0.1216058633053842,0.011204752128599655,-0.003170002832389109,0.0057816318164011695,0.00694682628559444
8.3,0.14516976929457884,-0.10726174978168466,-0.011314443344404344,-0.020858303181594397,0.008925942039742561,0.004273544385438787
8.31,0.11943722578784448,-0.09087957994951482,0.003998455543364098,0.009045220714971654,-0.01588378504952812,0.005256969030638522
8.32,0.13741350743643835,-0.12437699203409357,0.006379163334636907,-0.003800491129582679,0.011820473680248857,-0.01646498924498666
8.33,0.14681578483965632,-0.08336729313875334,-0.003006653261679177,-0.012016095563870793,0.01839730978891975,-0.004234327284119909
8.34,0.14257574012684388,-0.08822573492612917,-0.0018790598018138328,-0.0017790432222645754,0.0036204475972336616,0.002480006836496755
8.35,0.13363055079563657,-0.09739636332284317,-0.011765055213653492,0.005775832479767635,0.021074843376763235,-0.01939922214283925
8.36,0.1427063595033938,-0.10106594552628573,0.005657716876620088,-0.0048793710727855055,0.013026497925003684,0.0014962273835987978
8.37,0.12661189347359197,-0.10189921419012532,0.15361156138075355,-0.0004740886005632494,-0.010398039460025724,-0.0033120114056317687
8.38,0.12142675342235462,-0.09251101414080498,-0.010690274742755815,-0.0066838619172118335,-0.0035579016512070957,-0.001864936337334433
8.39,0.12279676889950872,-0.10550958294372904,-0.006308118952632072,0.0007653513123195557,-0.0007349805957970442,-0.011743135766597673
8.4,0.12405060490397682,-0.08814770606862449,-0.0053007657175635926,-0.008220852981322123,0.015983727273786573,-0.003719447725661007
8.41,0.1393877057476114,-0.08119230326915465,-0.0030948645843156923,0.01683244188825509,0.01893919265297952,0.003987627695163374
8.42,0.11862888151895959,-0.11226716593298054,0.00023865299158136889,-0.00025329539584238335,0.008332571830053401,0.013903047272574569
8.43,0.11534296712974398,-0.09230847471633821,-0.46750371133277424,-0.002360903686010778,0.011622548392443529,-0.01468322317677692
8.44,0.1293112951764253,-0.09707134261340347,0.018616617839670706,-0.01207189810877839,0.028050306702352742,-0.0010634355560325374
8.45,0.11392155970104137,-0.11280878844569323,0.00968074044021881,0.012981016690717944,0.006249570681148731,0.015976985065098207
8.46,0.132288166795787,-0.08228475452357668,0.021436414405379668,-0.0076960893853056205,-0.010100381621991327,-0.008910739215150475
8.47,0.13834150021238684,-0.09176900098804373,0.018865621460992934,0.0024121303377754918,-0.010060847864438015,0.005541904071828278
8.48,0.11739286390100698,-0.07619417256046321,0.32376985545380327,0.003013104635001565,-0.0011854932579520088,0.005324377711889991
8.49,0.12053071503148147,-0.10991012639894057,-0.008353430835072851,-0.00951121417210293,0.0027258676594862277,-0.004461515821549287
8.5,0.13947566037746148,-0.1224157571930732,-0.0036107448811362654,0.0014221350427632388,0.0026563900024871535,-0.014015606063861066
8.51,0.1446320135763386,-0.1026664013918815,0.012551669923766185,0.006686919442423521,-0.01106954331025611,0.01699212497820271
8.52,0.13094720445254426,-0.11450650256618089,0.010228707937691643,0.001229485178472324,0.0075301706345671,0.00362326877616854
8.53,0.12942311632175435,-0.09916060365435726,0.06560106350023348,-0.007749233978517273,-0.009602801672946682,0.006847330078020132
8.54,0.12701036904447388,-0.08515454951726292,0.0025392317200585773,-0.018680002756263234,0.003914117341674036,0.0024681582040802807
8.55,0.14107575848199905,-0.0921324035234178,0.0030040481284303597,-0.005891296575567834,-0.008386277315276618,0.01592845263507493
8.56,0.122671594526891,-0.0766906166371793,0.01132630741857855,-0.0009029650424255569,-0.012075651631994044,-0.006195816043804199
8.57,0.1261778805904564,-0.07024512643043905,0.0022717436369736575,-0.010154515144746523,-0.001329934382284651,0.03134512269194115
8.58,0.09933511884778579,-0.09368749486693473,0.004615840092147898,0.014345766773853321,0.005838691669401588,0.006508975508273897
8.59,0.12663465514093677,-0.09634491198623099,0.010841986013902462,-0.0019126975791755314,0.00016352961605781228,0.005341956381112984
8.6,0.11340134250598136,-0.0862067374271836,0.003419348152137014,-0.002650090878592061,0.01723965753984032,0.018508991992106892
8.61,0.14162144825112621,-0.08031529428709229,-0.009494600666248394,0.0024368843164407875,-0.01704846449789334,-0.019045927181072814
8.62,0.10859228238547163,-0.09439053838958125,0.35067516429936496,-0.016923690689979454,-0.01924189892688709,0.006497389924307161
8.63,0.11196243247783844,-0.09389066881205782,-0.22506806001910185,-0.0059052729604676946,-0.0009362852014934478,0.0021421600292251875
8.64,0.11487226269658027,-0.09879297503899122,-0.1621383578437675,0.005988716447347891,0.006644632352172323,0.011626026495215235
8.65,0.11712247658680117,-0.10242444966088075,0.013823242598634038,0.0032273660397742748,-0.005229701819415739,-0.000411630978018389
8.66,0.14001998434160023,-0.08881765789609398,0.023728281409941765,0.005759492514392599,0.007476959146912748,0.013603439656460721
8.67,0.1233017649386526,-0.08313310583177316,0.011363940663520264,0.012981299618968826,0.01267590762888089,7.509031043119528e-05
8.68,0.13375834180333623,-0.0871174115248998,-0.008040705518215991,0.004219080589668672,-0.009985345561863505,0.0033432845531966085
8.69,0.13310882336602994,-0.08658686708121352,0.057081135888239286,-0.00469050600150229,0.01674282113698486,0.024493339295074558
8.7,0.10359637779511383,-0.08219210262491822,-0.018763362336065462,-0.01798059360403826,0.0006744777249934686,-0.0016810249280887228
8.71,0.12872444084361265,-0.0970211556229861,0.007944366262417697,0.001717689032451088,0.013464788819585714,-0.010707566759922689
8.72,0.11624763653276222,-0.086084205742919,0.014463763773291843,0.004625008945678307,-0.000575347899322346,-0.001167457299361671
8.73,0.1179986284977875,-0.07852337731170668,0.059310563030817325,-0.003719565456886351,-0.0013176099823202407,0.011833569934919057
8.74,0.13726737320979673,-0.0810194460738453,-0.008077891988196,-0.00504024012823386,0.0006159285554869724,-0.00886924952702446
8.75,0.12392289036053927,-0.08677301246457787,0.0033707992585745835,-0.0028082939267670137,0.0014782003065480134,0.009071965107508212
8.76,0.1261783499132564,-0.09284579248406993,0.00045201287573670896,0.002214586596062949,-0.010344727922225657,0.002783401021782466
8.77,0.12056095595587912,-0.06676946288694074,0.019011742258429394,0.002339005278131901,0.00299805574986988,0.009167986021679156
8.78,0.12130226096476664,-0.10639279638653805,0.0010169365708188557,-0.00924228417406326,0.0015708773795465158,0.003474869652066399
8.79,0.13517936208704265,-0.08982434958413954,-0.014349103771829352,-0.011997351029058289,0.0070489245803555915,0.0023674994808771254
8.8,0.11475792298359026,-0.1077960858734746,0.012341320667524334,-0.009460956856120847,0.008596009504328693,0.007578980941395087
8.81,0.14001123873394777,-0.09267383776487664,0.010209191407052544,0.007270683696436257,-0.0068872941374198355,-0.004063942619945558
8.82,0.12601614461193483,-0.086008640895268,0.006314595887226205,-0.015675840689538006,-0.0073614487128148085,0.01146643349647224
8.83,0.1345991367158711,-0.08707464518952784,-0.0020187580534672756,-0.011136291689357541,-0.0024464573135640055,0.003343977665789188
8.84,0.11567167623709718,-0.08519144536976359,0.0164069822659626,-0.019682620676956784,-0.008043041721907635,-0.003403452904818573
8.85,0.14206550984960284,-0.08703481173695629,0.004073828984719983,-0.01939245070521337,-0.0028206935293796937,-0.004792191767515978
8.86,0.1282243524414023,-0.10353146753399764,0.010056429875327686,-0.0011546035098832551,-0.0066620237813174105,-0.0072618545784724035
8.87,0.11650237188684322,-0.08876642947857083,0.004980697536829021,-0.008332552355250078,0.005829630795259431,0.018920351057437855
8.88,0.10962293140677941,-0.0925455504544118,0.014890430298632353,-0.008645339307349148,-0.009842023026254084,0.001744973095588252
8.89,0.11871991118374417,-0.09491821937217888,-0.0070493586457374205,-0.007966648587567935,-0.013010522991005392,-0.005612674406393428
8.9,0.12943169260843826,-0.10048992863458034,-0.012924715717808354,-0.019010105851312593,-0.0036761731405539674,-0.013949605937681006
8.91,0.12318710962193405,-0.06010924923118355,-0.027453124226818667,0.012301103709368764,0.00220233991042189,0.011199398131817778
8.92,0.1289078977563892,-0.08761512144260658,-0.2363685257597909,0.00020546051205814,-0.00946435517472101,0.006661534788980466
8.93,0.12604863663829122,-0.06473200954198131,-0.29751568172727194,-0.015283853652482979,0.004365581172822176,0.0006660668481920423
8.94,0.1164123006487558,-0.07073073630523398,0.023605783882057366,-0.003401225268707532,0.001352335625588892,-0.003146937933554809
8.95,0.13856202588811078,-0.08850551594327287,0.03788172230614803,-0.017341042704593766,-0.007170806906736179,-0.00019088219627016274
8.96,0.14272561471645842,-0.08384041706011831,0.020093019841674237,0.006926912703110548,0.008013039226615233,-0.018124519523584032
8.97,0.13802115985393046,-0.055841847517967474,0.018754263608843767,-0.011068927671815863,-0.028805366050474464,0.004420356452663643
8.98,0.13701781754853978,-0.07844690232359457,0.5573871959384482,-0.015661974680218925,-0.011348550799806368,-0.022765589504834226
8.99,0.11264255598195631,-0.06660390812614683,-0.014280926729357447,-0.014321062632719546,-0.010262862005955775,-0.0074745075500277074
9.0,0.12718665857544068,-0.08840611185669334,0.06745058669471114,-0.016020363756901426,-0.010290438185526647,0.009073136614840101
9.01,0.13575105751416738,-0.06820646218097202,-0.005249971987511313,-0.0006822908317147369,-0.016848543237789136,0.01633535662796888
9.02,0.14010866084581716,-0.07012710015502541,0.0037363968795529386,-0.008229432750487087,-0.011677696882418891,-0.014019130568251865
