timestamp, accel_x, accel_y, accel_z, gyro_x, gyro_y, gyro_z
0.01,0,0,0,0.0018504360160365462,0.009982276377954975,5.3448212744564363e-05
0.02,0,0,0,0.0024342534237695133,-0.008679745141211155,0.013456619824267055
0.03,0.01082871947874718,0.0003334578316265884,-3.0046382619866465,0.005447001086984354,0.011111110897904945,0.00256709223395048
0.04,-0.009100545504941732,0.0015416153256841568,-2.774617240725037,0.009133051243291668,-0.004676191838417062,0.0029469302972086695
0.05,-0.016620923578273876,-0.0077008457573301894,-3.0041599697102916,-0.00391988529738378,-0.004135570955092768,-0.006612108076691632
0.06,-0.012974266865823331,-0.004768803450751742,-2.9855458830111745,-0.025527398549203106,0.0026128861394511984,0.00429756363983978
0.07,-0.01425024468328393,0.0042850867575090846,-3.0032794253185795,-0.023564932503222034,-0.0005172870484904956,-0.026727606677500015
0.08,-0.007799390529502271,0.014993726246744218,-3.0012791129950096,-0.028101788857597964,-0.004865706682819955,-0.008481817778150266
0.09,-0.0013426528154003503,-0.009247063568689214,-2.9980129179030834,-0.03362226735036963,-0.010897298047486337,0.0010372200750504048
0.1,-0.028211171680610915,-0.01646739312028141,-2.992855424682032,0.0012135135275730125,-0.005800310363475338,-0.00529981559559327
0.11,0.003648288345434363,0.005986154070974344,-2.9821508262735916,-0.02891378876367199,-0.001455589978468553,0.002422402564795309
0.12,-0.00495719155425648,0.012155589834174257,-2.9912653583619035,-0.03583867683773777,-0.007603214878509568,-0.008903778972797963
0.13,0.008114590067978057,0.0063868221453389955,-2.992897715844913,-0.06846540707625055,0.002259933217774026,0.002925697778312024
0.14,0.009120547604294245,-0.0020447459886024227,-3.0036480013918005,-0.032077406736048156,0.002933276432566677,-0.015272757865225728
0.15,-0.009743765683448657,0.0050825535264680975,-2.8230883504784403,-0.04427114736266167,0.0015979843272736394,-0.016070805236065334
0.16,-0.003055210962004378,0.015283949454619094,-2.0871229313862094,-0.06453850751617504,0.01810535137401498,0.005820576066721201
0.17,0.006512056850958351,0.020625479147311877,-2.271671717882013,-0.110078502667773,0.014960504346061762,-0.016870933772630235
0.18,-0.006513443129887298,0.013075793726620719,-3.009836151753501,-0.09760406002845512,0.010050598854043719,0.0027437890485259332
0.19,0.006541131483418113,0.009166840217267483,-3.169428931370261,-0.08569632640808807,0.018779169066757233,0.0028422523581733816
0.2,0.008293849796439153,0.04942724628926844,-2.472380411208846,-0.08699115394403768,0.008967280517128504,0.001900870364448812
0.21,-0.002671734300376402,0.043678162981622776,-2.50475343737822,-0.1028909042443461,0.002037519897951449,-0.0021607082560593568
0.22,-0.003833549484138969,0.043365631726965254,-3.0037893112449234,-0.10040766635390884,0.015330303018918159,0.0012613594622225865
0.23,0.0004058431416780212,0.03838698766249946,-2.9987917273573377,-0.10903894711341691,-0.004176315130913526,0.0021367458743454058
0.24,-0.003913212987910541,0.0496183930198274,-2.976893690325257,-0.09795678912672974,-0.007205319565227331,-0.002753386017680906
0.25,-0.02153795750372917,0.07420993723867528,-2.9795162436484626,-0.1067487841754678,0.00967711650062,0.00442825004539788
0.26,-0.016121931201283662,0.07256985415303283,-2.9893228316736096,-0.1217461732789626,0.00837352846403548,-0.005412635360724928
0.27,-0.017266319983743204,0.08832140753714954,-2.9562897540231576,-0.11436750282548072,-0.00529633115889442,0.02405119665304175
0.28,-0.022390136892139895,0.07937955060142363,-2.9984411430681757,-0.10895908904981585,-0.012266942870477325,0.0032435942197152636
0.29,-0.00733224218042563,0.10109903371505766,-2.7847866478317522,-0.10704116383519985,0.008612555561859874,0.01891748712518783
0.3,0.006757599582842827,0.109383100075982,-2.9970318648894083,-0.11320676871982786,0.007116837199250586,0.0001276117655635621
0.31,-0.010299187089429222,0.09483298192706924,-2.7427543202783258,-0.11014202566236718,0.007283357209918899,0.007466592094270612
0.32,0.007794113424903744,0.11755708032776996,-2.264257231888015,-0.13283456142113723,-0.018111406267559128,-0.01789126275343964
0.33,-0.0232780784044978,0.11783592030089497,-2.994958013743834,-0.12620857270157265,-0.0037592540627962045,-0.015383985648187963
0.34,0.001367141125161943,0.15766761622383516,-1.5953153080472602,-0.1289265548707119,-0.005777545063843582,0.006769760584772631
0.35,0.011481824099638578,0.12719574640430537,-2.983814807924449,-0.10960312446418907,-0.02381723742501591,-0.01915420889391466
0.36,0.009685619993476996,0.15273875345687365,-3.0005037666310597,-0.12410952961816583,-0.01710933357695686,0.0022891504601610917
0.37,0.0011446562543431303,0.1394357241559057,-3.401530794855955,-0.1240702557562607,-0.007436801836423074,-0.005430290541297114
0.38,-0.006804523563926067,0.18616348296280769,-2.746312068672232,-0.10895731007348236,-0.014714710597140745,0.00562426337803231
0.39,0.015067797302307501,0.2040393915103783,-2.7096518483985306,-0.11052956307470106,-0.025877294346626573,-0.005890960299616907
0.4,0.0016742044223217044,0.1987636038839979,-2.578258349561223,-0.10724433118721792,0.006632710002513016,0.007166700052295428
0.41,-0.017234575891130036,0.20116326890113642,-2.570710761556233,-0.1299511194300487,0.005852933618180933,0.008999173484861326
0.42,0.016199055419635,0.20776156983613156,-2.508864950680773,-0.14021280547489465,-0.005513927570845449,0.0026783851561362243
0.43,0.006079252599883381,0.2375857977040313,-2.201949450808959,-0.10439713426721431,0.0039033091459831472,0.013957316130387568
0.44,0.0003912017997563164,0.2287680467950635,-2.3543014216310687,-0.11570612937497375,-0.026744529589822694,0.004754991355127229
0.45,-0.00934523042253356,0.25817487602260164,-2.3060588189565756,-0.10552821819277265,-0.020435115967306516,-0.0043703034154311746
0.46,0.014155560727494885,0.2523730710921712,-2.243143027270588,-0.12081295741495585,-0.013495842364844022,-0.006895861711450554
0.47,-0.010681072228134761,0.2634723250657404,-2.1734594057575176,-0.11846858556789817,-0.011017504798258651,0.011980097035393844
0.48,0.012892109207871223,0.26632696520247257,-2.10543394810647,-0.11466552057709206,-0.0009456598759916071,0.007460964936127164
0.49,0.011173308240951783,0.27742204265522846,-2.0650092614933966,-0.09616866903216119,-0.00898400325227501,0.026363664472142296
0.5,0.003948292710397674,0.29703966656421577,-2.008423914543884,-0.10220021341462565,-0.016141626915361106,0.014526205605007555
0.51,-0.0006980931764610024,0.3107626518281411,-1.8955728281166733,-0.10799868563853599,-0.012667625392653207,0.012985149850304151
0.52,-0.0015588313365838893,0.3409849461429404,-1.5336189832121154,-0.1290033734192907,-0.012736893393743176,0.0018879306121751438
0.53,-0.007727367334912761,0.3238526372563466,-1.889828798753769,-0.12696547133097935,-0.00799515254689298,0.0037897469887977365
0.54,0.022522407676853245,0.344496372038997,-1.8452863438784355,-0.10063473339624884,-0.01087508468226814,-0.003515111878501065
0.55,0.014580508429048272,0.35635392241709973,-1.7794274191038826,-0.11263025447152265,-0.0028937562143127897,0.021160680532281435
0.56,0.017555095594115736,0.3404405714208944,-1.7552043657053418,-0.12523269240759435,-0.02738584696799838,0.0018015997406963628
0.57,0.013429102468301268,0.37213077931770233,-1.7376867079371927,-0.11115003781560871,-0.016349512286128607,0.0003652672484981169
0.58,0.019433526101120757,0.3720464195463846,-1.498919973780323,-0.11025978997058504,-0.007384634645402237,-0.00390825118863329
0.59,0.018546377854543473,0.3896589235133638,-1.5995904807725807,-0.09930354704365005,-0.020721710070052753,0.03064623185273754
0.6,0.018874271571998367,0.4051721924692258,-1.5557938386626122,-0.08830367422604876,-0.011171224004830746,0.018351450196865893
0.61,0.022396243759043255,0.40513439986835514,-1.5149196148995383,-0.1186166391384883,-0.00708636869709902,0.0043105845720378885
0.62,0.03227830357581744,0.4196067838247214,-1.464559660582324,-0.11155940967153004,-0.02228645971238465,0.01914318269630732
0.63,0.014513712400965283,0.42964428757092576,-1.4449884361791403,-0.09925229477229276,-0.005634910430498642,-0.005527659855089982
0.64,0.013021525736097342,0.463647750866588,-1.3981214272699716,-0.10501789196628494,0.003975021663715562,0.013778097712364405
0.65,0.016885828838221338,0.4709299478230906,-1.34588882805746,-0.09677118631846554,-0.01294754458403037,-0.009278596270912742
0.66,0.046602957221781725,0.5089150111996704,-0.5749348986455706,-0.12381075088918307,-0.018031693189000435,0.004308639620580069
0.67,0.033278166157574514,0.4941053127373342,-1.2648620655645761,-0.11893398531733346,-0.000376398673007268,0.002883539840276314
0.68,0.036948118070607855,0.5061830897186196,-1.3129333840141515,-0.08184731973285457,-0.010873719078711331,-0.0008757064234397737
0.69,0.03459185034568178,0.5212378575355374,-1.2597288876329567,-0.10764143853091922,0.003000280947473793,0.01818008488896379
0.7,0.014014632830338419,0.5280254878838271,-1.2088298691396882,-0.0940832715606885,-0.015045432766350033,0.0070794742610608835
0.71,0.03188443204548753,0.6015934331827436,-0.004802360819538124,-0.11401416422357467,-0.004158245236463678,-0.013003268643244121
0.72,0.030543210759630478,0.5319818352476959,-1.2213135085117528,-0.09363669384560408,-0.004244245038015584,0.0013252919695087313
0.73,0.033048756207005606,0.5645928939922803,-1.1841745217711233,-0.07753238244564305,0.004580345444553482,0.006654779527776659
0.74,0.009280229655421558,0.5843391970468961,-1.1517335275923122,-0.08282249996766024,-0.0019392910429430936,-0.008175823043662132
0.75,0.012471147311151738,0.5735881534117411,-1.0789258730458586,-0.07825939369382165,-0.016942764008843873,0.020832798632053486
0.76,0.019904423645324604,0.5814143950939179,-1.0785545462279442,-0.10000270899002245,0.010379249450102726,0.003202757369610995
0.77,0.034461098542107785,0.6672644126636728,-0.19118637831041757,-0.09328424874902413,0.00018117559236778547,0.01506265717727061
0.78,0.029887172761193383,0.591857137241871,-1.053951176235345,-0.07334449582545084,-0.007513176054380118,0.008355911861918834
0.79,0.03151497975860341,0.6272067482517836,-0.9121727363990153,-0.08222007222041261,-0.0008196274646879156,0.00996765067058808
0.8,0.04072440180525238,0.6128345960599123,-1.0039460998063068,-0.06214261611221193,-0.01500976467617,-0.0051550321858745765
0.81,0.03752894450908437,0.6273363882767233,-0.9656191429448537,-0.0784255146134284,-0.019587548694203833,0.011117997384852658
0.82,0.03696454245359943,0.6178939331059924,-0.922748642161382,-0.07589778775626536,-0.013228522548495287,-0.00219253158508806
0.83,0.03981701874457683,0.6578578430572128,-0.9018373946334312,-0.07430430471794343,-0.017596842506972847,0.019917636037059223
0.84,0.04301320560862567,0.6387579106380461,-0.8717908074887655,-0.039071861157647325,-0.0016923120531849665,-0.00175352747757479
0.85,0.04367207400398748,0.6636695105810864,-0.8699996007721614,-0.051368566998134337,-0.016662490070919703,0.010421954709786373
0.86,0.03705035609590033,0.6742287232931284,-0.6281223818578325,-0.06479571910892953,-0.004546622321226986,-0.026357644089646925
0.87,0.06218117306352365,0.6833125449176627,-0.8245457605160152,-0.09091089475264971,-0.026008901809569093,-0.02311803160793885
0.88,0.04104599441011667,0.6965527200437857,-0.7264707571595819,-0.07919826882703968,0.003443689822327378,-0.014820545160268934
0.89,0.056964812096243184,0.7777025133024256,0.46783113646026186,-0.06996907249822086,-0.01131590441580765,-0.0025086744195442386
0.9,0.04962927485152783,0.6223500157144598,-1.4140542403360918,-0.06173287383305704,-0.022194469560751412,-0.0009556594115877519
0.91,0.04878170548186326,0.7124212281568593,-0.7590788090415628,-0.07249301199099144,-0.014468150774575438,-0.0028363536222228035
0.92,0.05331270352575558,0.7137213847743715,-0.7361094976778653,-0.061579209052385814,0.004895550850180858,0.01957790730590013
0.93,0.03626616691264476,0.7172659043848151,-0.7223643342730772,-0.054044181903695865,-0.02141551600695328,-0.0021188494295546682
0.94,0.03271738272828715,0.7252619451636229,-0.598787896692636,-0.038229613191683456,-0.007615823669824739,0.009342435327813262
0.95,0.05251794043672083,0.7382092893904556,-0.6954426387147994,-0.04595598256480103,-0.016976601634613998,0.0165584968219271
0.96,0.043620894984881475,0.7268813033201961,-0.6512845234357636,-0.06895530878503123,-0.025510566814803008,-0.006116194933752686
0.97,0.06329385307940744,0.7593707424704231,-0.4321179990865757,-0.05447742331573781,-0.018539545855677377,0.012148362180667758
0.98,0.061182952183955086,0.7483492231251732,-0.6378170859800538,-0.06587822600174002,-0.009405642863663865,0.000733327989837846
0.99,0.05716781308349196,0.7761084795031853,-0.6140328454619153,-0.05375506461534982,-0.0390010289564117,0.006038228389001107
1.0,0.05054918585224559,0.7659433708338375,-0.5910901620364233,-0.038928631719281924,-0.019088860720591298,-0.016643371805190404
1.01,0.07022653399734156,0.7790058906675432,-0.587889492786684,-0.04787360112171061,-0.02724848767228039,-0.005724912978780224
1.02,0.0413925717077659,0.8066651891465765,-0.23752192538355274,-0.044167674754619905,-0.022558143694993586,-0.007234118554339125
1.03,0.05503228713766398,0.7719045744885309,-0.5694304787847075,-0.049626291714365806,-0.010125901709817817,0.0004772286105273328
1.04,0.0477710242715163,0.7880954385934337,-0.5535921641043638,-0.0427880080428635,-0.022018890181810184,-0.020159932335220808
1.05,0.08156329911508135,0.7872153458730232,-0.5454370045837952,-0.036869419225390596,-0.029964122248441662,0.010632677416255345
1.06,0.07018828641413324,0.7939209344987862,-0.5042809483247792,-0.042036131993462914,-0.008347624078117389,-0.015334505718525175
1.07,0.06456180670417651,0.8614913287021899,0.26276587186434713,-0.04161511805116319,-0.00931417624575841,-0.0051398411676357855
1.08,0.06496310293019088,0.8241143801031011,-0.3347020314907874,-0.030723511739067087,-0.017529281123945018,0.0017257804232561859
1.09,0.07516920616523169,0.8038015085605179,-0.5299607442417531,-0.021367272462108573,-0.02444119099624006,-0.0029897193541572812
1.1,0.06604612280537044,0.809928972966717,-0.5002601106334232,-0.025596436475975246,0.0031949381184354815,-0.023122109374438746
1.11,0.07870477586875872,0.8245562182107427,-0.506702360973853,-0.044070410822566436,0.00363340922285078,-0.006478733362787245
1.12,0.07325442796118459,0.9414854631535127,0.8615386823415826,-0.03794946678937998,-0.008747779988586658,-0.0059064187082193235
1.13,0.08161892830196117,0.8059833012989667,-0.533136665057718,-0.0399129458690912,-0.01708501155015637,0.007205886842212618
1.14,0.08623932228770612,0.8028093238062709,-0.5207508196218575,-0.030341062965874743,0.0011415676188991138,0.002436389046533107
1.15,0.06167366817420456,0.8465897702128403,-0.4914228346977873,-0.019413619522845836,-0.013439943490283166,-0.0052474142587841084
1.16,0.09658796254650448,0.8463003562601401,-0.475110809757649,-0.04984940506790627,-0.013804643762369034,-0.010063233292972472
1.17,0.07226672798425898,0.8444664151545613,-0.44342122760075425,-0.024897653411312386,-0.027447199631959428,0.010873764027281732
1.18,0.10088063590598945,0.8369632452320669,-0.43399065766211814,-0.02246140135495673,-0.032490734676367546,0.017699829410289282
1.19,0.07225843033296903,0.8784802323023484,-0.2298178764708533,-0.034370551895373996,-0.031972277957450425,-0.0028006097490107986
1.2,0.11247947445999432,0.8793985321778188,-0.19963420014869576,0.00033440087183464473,-0.02093635940996115,-0.015926564138954446
1.21,0.08421081081178441,0.8794121125399395,-0.030004788144618395,-0.024624739214182206,-0.028060897691996656,-0.019386734829259844
1.22,0.08929348494067002,0.8697454105989796,-0.0959153667067224,-0.03775885690504138,-0.00719652610325552,-0.003638056215555607
1.23,0.09492033263903119,0.8547674827762828,-0.41486459084311256,-0.009967304944940988,-0.03299685447998646,0.006151561772544677
1.24,0.08717750309143646,0.8677221721252516,-0.39393266671218374,-0.0021232907199358435,-0.013792705179891698,0.003739515336769675
1.25,0.11705152105297353,0.8771580638103623,-0.13116998474562078,-0.013656929333103569,-0.031801175856847406,-0.0036502601896161698
1.26,0.10626021542227501,0.8586242626318625,-0.3930508335327118,-0.04108753456901968,-0.012275750221143446,-0.007364318238199901
1.27,0.10803014158099952,0.8748554291427169,-0.38588374629725847,-0.026819258803771905,-0.012307019694277601,-0.008946961851990292
1.28,0.12383464099447616,0.8926447505560723,-0.3768426998333811,-0.03015207754508612,-0.017315947317219547,0.012476968192786967
1.29,0.09931489261626189,0.8834528463629991,-0.36544919214201976,-0.01899413226104519,-0.009291851966705898,-0.004282039916395003
1.3,0.10227631952826587,0.9030238209476833,-0.233925325889991,0.006091614218955705,0.0028387604629110247,0.0004725256726650994
1.31,0.12173096480197239,0.9079193181348238,-0.3392368242003226,-0.007274687080150527,-0.03108367426873105,-0.0008289004154785153
1.32,0.09787335201682383,0.8709607429001675,-0.40487256974633024,-0.025851390973461782,-0.02866689353359519,-0.012084814323608292
1.33,0.12466940288178267,0.8832434329875349,-0.30886449322565895,-0.019544269685230934,-0.018402063901599926,0.0067559785962362645
1.34,0.11685813557213147,0.9475023180826224,0.14961217097053078,-0.02179957037737147,-0.023578587168179694,-0.004588517503076865
1.35,0.1226601198728517,0.8820443857966457,-0.2950015450984501,-0.0017367062980305752,-0.006393335248344345,-0.0021181937633537452
1.36,0.13322817685298913,0.8897218856204775,-0.3167823196519001,-0.018538352207706908,-0.01141565173137206,-0.0028837749366432473
1.37,0.14034315818044277,0.8948080615174051,-0.17394626256851348,-0.02789188401221259,0.0021374460676263293,0.00035916999199858603
1.38,0.11370645519860849,0.9301935137366821,-0.29273858914982,0.007443283431644611,-0.015170213855449425,-0.007190896979263574
1.39,0.11432742729560418,0.9231685986876603,-0.06714269043203233,-0.004054816421066191,0.00017364465920846617,0.006188279110271029
1.4,0.1216351245714576,0.8958925853440193,-0.2959489295005714,-0.015990874548429554,-0.003736808914092695,-0.006457309598971813
1.41,0.12840517929407327,0.9174477286089653,-0.27716668182759613,-0.02516586256130089,-0.022131580862480734,-0.004938007913114173
1.42,0.11949079695651953,0.9081634032994529,-0.26019536900453405,-0.019730780100895698,0.0036726497439699343,0.007276330852388079
1.43,0.1264040843622947,0.912231804712513,-0.26233968252553264,-0.011307564370793078,-0.0023886919575146544,0.011944945285887673
1.44,0.14659690933014427,0.9576360164635529,0.29725445881084694,-0.016350063439451598,-0.023309146026730627,-0.0016530734517370281
1.45,0.13970673807615697,0.9133655226263463,-0.21556334168896352,0.000505535949458727,-0.024807062145087613,-0.00691363771846911
1.46,0.12489821848935653,0.909190900136528,-0.2599555624798971,-0.005004275429822597,-0.01905106131945144,0.0016112747823973414
1.47,0.134148003122456,0.9122465573631984,-0.2428189442669083,-0.030275946054980296,-0.015385335539777244,-0.015355243603604308
1.48,0.12923400608832686,0.9329755380372942,-0.2316314127999406,-0.002771104097365225,-0.011704977366240064,-0.011449182350959958
1.49,0.1290436145023119,0.8840054025807155,-0.39094516053171585,0.00022645443069182168,-0.027711611418832785,-0.013403737068570955
1.5,0.13800299419382903,0.9242278866492164,-0.23055852946130814,0.006185786557322566,-0.004632077084683694,0.003182466084145139
1.51,0.13883788302908656,0.9321122906012138,-0.20696993401237102,0.005534971026523644,-0.042033124578053686,-0.007837812115016527
1.52,0.13134505018035117,0.8617451846706965,-0.7812193377564305,-0.006899518024265423,-0.01992086684278252,0.004147743600621526
1.53,0.1496674970688872,0.9146162502453592,-0.1596628885697755,0.01296515428310719,-0.0156330098286297,0.007057301362328878
1.54,0.14282518782939463,0.9100667436788263,-0.17313586502516362,0.015107314910451112,-0.02297842128515613,0.0002443740052520474
1.55,0.16284463071116503,0.9260725653535626,-0.17896133954649016,0.013779460682392138,-0.007785274213320507,-0.0050503235725360245
1.56,0.12678518562949284,0.9308565010328748,-0.1620004839578158,-0.017314890027684045,-0.022844675489345427,-0.011823455171183161
1.57,0.16695240276983325,0.9463713980165479,0.22088145669382458,-0.01647317991465946,-0.02020381649374695,-0.015432734739642377
1.58,0.13419435171964264,0.9217134027628658,-0.19781312582954214,-0.0021068079982308374,-0.026680740257650194,-0.0014484326555657763
1.59,0.14424493991203,0.9147292081335346,-0.16622664910661042,0.025345492698781398,-0.04098240661452765,-0.003445983023470995
1.6,0.14325909332820733,0.9328884062797509,-0.1815730059237696,0.0012272525529280712,-0.029764608326233254,-0.012125218578347847
1.61,0.15086155577682164,0.9387284944136647,-0.17275563377053427,-0.000804513510462495,-0.041603828279552474,0.0174678759591986
1.62,0.17880259250269964,0.9175820609529759,-0.1634511759970889,0.011049316575388973,-0.032506114652103055,-0.012097976454576234
1.63,0.16340197157793335,0.8713517970288875,-0.7265567455080492,0.020532869626195285,-0.033037380878459366,-0.005246896923990895
1.64,0.16489386554880478,0.9358629107763048,-0.13426750161435774,0.019820645010820467,-0.01758426005312761,0.01796832069773733
1.65,0.17901657833351695,0.9242641585549664,-0.1299727788598498,0.017576478412559098,-0.010552367874142729,-0.004730064048040419
1.66,0.18300173638730355,0.9249181976785459,-0.10873801057908312,0.00888832103029864,-0.04955977901126253,-0.0038316151632594893
1.67,0.18344487503728163,0.9370905118080098,-0.05767342671635578,0.02256776498837467,-0.025085971878111044,0.002511700799225047
1.68,0.18005430434687192,0.9048751878825367,-0.11991195919499895,0.013223934170859524,-0.03512390042789835,0.008741019119567336
1.69,0.17931116599420593,0.931165672271667,-0.1154433992767332,0.008862896397178584,-0.023166122823268936,-0.003991021142747736
1.7,0.1873580568874126,0.9106100604956717,-0.31358503093178725,0.010402513916319587,-0.028520096180602438,-0.0019941133326199824
1.71,0.19413752669201528,0.9018634643666276,-0.10005248579078087,-0.002192214768427476,-0.03962392304176234,-0.011978114371373095
1.72,0.22115904341968942,0.920628969997253,-0.11046545098933859,0.01092094366930901,-0.023097834542356654,-0.02194857219772091
1.73,0.20579366312855726,0.9863182685296041,0.7206755668179318,0.016623884444066133,-0.016736686067632484,-0.006891525406706433
1.74,0.18866914524809228,0.9053614458952757,-0.14073944049672046,0.031674647524857935,-0.03402147751353378,-0.0015094827619049202
1.75,0.18867201738505673,0.9154968316345752,-0.13855137751198177,0.03059545347360293,-0.01374384817774503,-0.002017864530422478
1.76,0.19671102316841013,0.900913974507835,-0.13803178042398023,0.007780107624936491,-0.03813081994536942,0.0038137346147698228
1.77,0.21233960678924163,0.9140978605110127,-0.12096027171427118,0.0340720941516863,-0.02798271259558499,-0.01698405148308717
1.78,0.22825048380977697,0.8704841177307847,-0.5067299494014964,0.03899073689611979,-0.014351999737867292,-0.009694590685344454
1.79,0.20217866358793316,0.9077074715502477,-0.09583727026647798,0.025997818812038893,-0.015114722952713832,0.01265251448183099
1.8,0.20523245450065314,0.8991900211617582,-0.10407001224517663,0.0339777422097256,-0.012069530342031511,-0.00575587776535577
1.81,0.21062485522912344,0.9184978138640686,-0.016195086999431955,0.016140764096191557,-0.029507421326199483,-0.0011237732523692746
1.82,0.22721907009449702,0.9051547155303769,-0.10381209239141362,0.03358107578053421,-0.02586215603276282,-0.009038717786682245
1.83,0.23141475709540024,0.8964851534928769,-0.09091789937563405,0.05074778212318784,-0.01031819103426823,-0.009643737317152687
1.84,0.22513638080216455,0.8906063526337873,-0.09635229536795187,0.04502643996117502,-0.004343923161137747,-0.012815282416734866
1.85,0.23570128546144845,0.889362354803338,-0.07891217318908594,0.04467035791443845,-0.010710330156643168,-0.003916860211164403
1.86,0.23202335299348223,0.8639816464193553,-0.08846807542051476,0.04000008655074665,-0.043028784115999724,-0.011712420607968543
1.87,0.21956736001739974,0.8872092614110547,-0.07323130587114292,0.03611245955490499,-0.019635343790039162,-0.020141305363570776
1.88,0.2267414069889286,0.846984163452713,-0.07996992596750557,0.03604121389200687,-0.00552266395464388,-0.01665398458998863
1.89,0.25778833859747624,0.867661114036,-0.07256920379734619,0.027573574422438418,-0.033056231342702386,-0.00878818233778684
1.9,0.23671468588360017,0.8662954096210507,-0.06886984757115734,0.055541136397644755,-0.012007735945753113,-0.01020044617538505
1.91,0.22665610407638043,0.8721254942364368,0.09087604168659093,0.0563791576713981,-0.023460925825726644,-0.002850326079240149
1.92,0.23478481079060873,0.8699159921464019,-0.06514001124358024,0.03701847526917038,-0.012069893037449389,-0.013237036734823439
1.93,0.22846171577518906,0.8547975651638061,-0.08020019758107241,0.03771411075572889,-0.015436727858589032,0.002984424247165672
1.94,0.2366671985767402,0.8698631948454669,-0.07718000195127382,0.04719700839833648,-0.025868601592484594,0.0007581924394099255
1.95,0.24625976896928772,0.8531246674622099,-0.06676465068177342,0.05100139165879816,-0.013400953444674776,-0.008295247013492624
1.96,0.239512910612059,0.8349764913156645,-0.057116703851292444,0.035644509850994,-0.02085255972896461,0.005037193468011497
1.97,0.25244078352609534,0.855892221583015,-0.05474974695371819,0.05371751304811307,-0.01474897207843687,-0.005408230984138998
1.98,0.25862928050775924,0.8326679201008452,-0.06469035331793106,0.0552319329008409,-0.0029132180740410654,-0.001219041989667356
1.99,0.24468142767346387,0.8170516823126883,-0.044074803731644956,0.06967147028647808,-0.012357910852801478,0.002308504217815942
2.0,0.2461501344435083,0.8211674593757972,-0.05733251835867365,0.055676222761529476,-0.0038684217959649063,0.015018431036457473
2.01,0.2637749888833362,0.8096057981631855,-0.06046007316859041,0.027171891423383117,-0.0264372221301237,0.01889750057373421
2.02,0.21503943222358793,0.7287794252500224,-1.1621352134748584,0.039496199328129186,-0.030987279382517812,0.008329285922951693
2.03,0.21891602924078635,0.7233504114105812,-0.9789788485785513,0.04665008841574852,-0.010844897940998953,0.0007416645020382447
2.04,0.26982459175458373,0.8079475968090405,0.06693843149152544,0.050150864900595955,-0.01806237635084798,-0.013374265479297038
2.05,0.26861535862743846,0.8112252483172413,0.05095525766314995,0.03222429886459695,-0.012070871187212407,0.02027507415639232
2.06,0.2675210839983919,0.8033768064711229,0.018827191743079223,0.03831983381139618,-0.01905652237807225,0.013091583606179643
2.07,0.28009935809233644,0.7919978375514095,0.029364741747574162,0.03764836534030526,0.0010478876348577332,0.0047623607300263816
2.08,0.2708379537963805,0.8062694504227139,0.027078533039741046,0.05428878378240223,-4.559440373683166e-06,-0.0019799532825604833
2.09,0.2749997945114673,0.7910430498906212,-0.01566160589841878,0.03319618403957951,-0.013138400460982238,0.007197525446656253
2.1,0.26069652007687166,0.798233060756207,0.018502076455225277,0.031782682204599226,-0.010246681336111335,0.0046142104871144
2.11,0.27040047145027635,0.7651815848062622,-0.0029215227111236836,0.023681223274921188,-0.011701643185166692,0.006414696052666022
2.12,0.27298147028526987,0.7764242984204491,0.006204479777987991,0.05731727143857332,-0.018309052582181434,-0.013237919616665605
2.13,0.25326438296074855,0.76978032082195,0.006237370261067355,0.05278927884655548,-0.031005206695142982,-0.0016077048265838523
2.14,0.24994632693184748,0.7444808010933014,-0.5169288268058945,0.05247135001221842,-0.030466297367150244,0.007928000755884726
2.15,0.2558976540439866,0.7680231818658634,0.03225230889382432,0.05655571613730847,-0.02500865393603281,0.0006403783841936823
2.16,0.25521065080331357,0.762947188452838,0.012855241052398585,0.049605536027334786,-0.015812416427054547,0.004501173279565548
2.17,0.26721258222123767,0.7530160971354214,0.02290575792938016,0.04117726200375294,-0.0290179242464097,-0.008008480780762103
2.18,0.2745032606589842,0.7425464165630887,0.04226814811338239,0.05750988115939891,-0.014695773064936137,0.010846230384342296
2.19,0.2876170232584481,0.7470943182843285,0.006144281624510618,0.04846758194858575,-0.0263955618944145,0.01673679954132922
2.2,0.26655310894173734,0.7255116034659113,0.009337002299973054,0.05546064333079482,-0.017950332733258686,-0.007849623172122398
2.21,0.2682367455101111,0.688369205888672,-0.5921240823702257,0.03525599714405118,-0.003656670387490308,0.003383910920530474
2.22,0.27502539164887174,0.7234109453218495,0.06020270532523606,0.03691031271618238,-0.029047331170847346,0.005106157809904846
2.23,0.28974149801203275,0.7342463127803588,0.03062651080106457,0.050639160765555316,-0.007483246357961531,0.0013092999394880892
2.24,0.2926188217137513,0.7382031546869982,0.012197224183574322,0.06435886717964949,-0.009656280651739804,0.0052483066174469
2.25,0.3085472775961405,0.734137189188356,0.030448405536026683,0.0732787168432691,0.001193214801844691,0.0023782990302745116
2.26,0.28392360987311754,0.7077378371196866,0.042058914566072254,0.049053548473602035,-0.021914375079767175,0.008062672842896045
2.27,0.284166633883945,0.718131067567681,-0.02446540465725876,0.04534201358502756,-0.009799754127352855,-0.0042989901592023864
2.28,0.29829935698837323,0.7034874164507225,0.04436114935387667,0.0509826078703668,-0.007091234876018662,-0.0036681422713430705
2.29,0.29035612309834796,0.7068658692624626,0.023434169319250013,0.06896970192540093,0.003276822760483208,0.008867425913571276
2.3,0.3010998243745893,0.7029273888229326,0.03384268808230042,0.061158204625457985,0.0075813733637698985,-0.0059912622837805735
2.31,0.30198171170780286,0.6784366297819092,0.017108044136033528,0.026678897590256823,-0.01714998451223483,-0.0004551460711008071
2.32,0.3211504373838394,0.7328211288126885,0.5945033350943068,0.052376324889123395,-0.01642539850473291,0.012731200016118254
2.33,0.28326234025668445,0.683643464389469,0.0017831144042077295,0.041383950100028655,-0.008948210077881666,-0.012376713439950735
2.34,0.30460353346641234,0.6896541318237691,-0.004774026921300531,0.05888644265028016,-0.01252762979835412,0.0027859844505049034
2.35,0.29585524859243956,0.6647061844435159,-0.004665975683103099,0.047991424357091986,-0.013581186833691937,0.007464282671116276
2.36,0.28722308025254284,0.6477086635197236,0.0034768039801449132,0.03898296683334527,-0.018794653595003354,-8.089468456012189e-05
2.37,0.3099913178969825,0.6537652280996862,0.003190816203730137,0.04498170969433238,0.003172738998542755,-0.010427966691959419
2.38,0.30451232050452,0.6603138595773056,0.00951818265142263,0.055804393497773115,-0.010316204531941046,-0.002722880832719125
2.39,0.3142455286774255,0.6404763067578995,0.008976987299460169,0.05939285430787376,-0.005468973516230647,0.0016109238898005405
2.4,0.29821199920878466,0.6449394710797252,0.006325006079530583,0.0610901248986136,-0.011720558174960424,-0.0015462205223610828
2.41,0.3045896193097166,0.6432826394988568,0.0004915363432374453,0.05601759143362268,-0.012607174751712497,0.01350402662214685
2.42,0.3112648270872625,0.6120669293482793,-0.0012017773050498493,0.05098202015666622,-0.008379586434900055,-0.012750906245692941
2.43,0.30145837627771294,0.6212475475512695,0.011010746508558595,0.0492318576696279,-0.017707806301233284,0.017862232436755235
2.44,0.30678833881790124,0.6275181087232498,-0.0037063147025341373,0.042690537018933467,0.0071900021023987536,-0.014137754966279704
2.45,0.3038539328915962,0.6184706193012315,-0.20861751421166136,0.05457741703961209,-0.02397847215979306,-0.013787597264212205
2.46,0.28463583747095594,0.5278123251279411,-1.0768643907332403,0.04332576555012156,-0.01526434478805697,0.00157851490754165
2.47,0.3136867440970241,0.5711868194462704,-0.43236435635571047,0.04866842940949604,-0.019455924230668584,-0.010475747476131145
2.48,0.30714328415831743,0.6050732319757468,0.11511654322082497,0.06329937557481516,-0.015292673966084736,-0.0011179728128548057
2.49,0.3064047124604858,0.5929602433853549,0.08249463624424841,0.0622080520081211,0.013024500849699937,-0.01890493766371177
2.5,0.32472340860357574,0.5946090297930879,0.0650654642976619,0.06596304181824607,-0.0008590857223169236,-0.005991363677161312
2.51,0.3324221214090564,0.5995563392614788,0.17932682346684695,0.05621174424880192,-0.021925506566202527,0.002628497031749508
2.52,0.31710191788450937,0.5754800608389037,0.05865337198275294,0.056778676807668446,-0.010239785266895538,-0.0019998546928049915
2.53,0.32471693881682384,0.5774729927504907,0.051379890266277706,0.0520342330271991,-0.002663390537560377,-0.007376330748919664
2.54,0.32361005874284005,0.5716019811676842,0.03324966059587698,0.05942286727634659,0.007014838093023684,-0.001017870640467522
2.55,0.3114134159677998,0.5704439914040754,0.04522737540894851,0.056002355591074734,0.006662745080137949,-0.015212612928749559
2.56,0.3070020471841795,0.561410307822507,0.06639515238625401,0.032797650162376804,-0.02517308768584325,-0.013587810507470545
2.57,0.33592098851287205,0.6024220088839992,0.8297521311655136,0.04847247298689699,-0.007255930769811017,-0.00850732584285484
2.58,0.34532258569027974,0.5610193703491101,0.768460809781446,0.04068909409368508,-0.00407668304758817,-0.0021707065052114973
2.59,0.3073594625284196,0.5387208962314403,-0.04294505399927087,0.07208745210948338,0.0036272401087478166,-0.006035108203205346
2.6,0.3310906261252318,0.5408325395192026,-0.03571635845490346,0.05023141808918033,-0.010159647949270394,-0.0012591724708039126
2.61,0.31175058810525785,0.537282675548206,-0.024246095534384803,0.04482507305493497,-0.014548286464865433,-0.013357707467725565
2.62,0.3234543067472311,0.5315120975239616,-0.009036890214013717,0.04639867894598672,-0.007116055073569416,-0.003659322469936468
2.63,0.3351907728489988,0.5334007290740916,-0.0053387559797225224,0.04962117626605081,-0.018193636722196108,-0.0018609592743000797
2.64,0.3326488233927419,0.5243569213147093,-0.008672014957850346,0.05463387803324415,0.007161445573098049,0.0008928876750291569
2.65,0.32084852031295663,0.5246557257841054,-0.008690126295649832,0.054365765308756274,-0.01687242923399878,-0.001893367359807387
2.66,0.33697601910250646,0.5109969855150424,-0.0055265208697386015,0.03508124893957022,-0.020887844724245493,-0.006515297806025659
2.67,0.316253212887677,0.4816668246245452,0.002920532485334081,0.06068894074126473,-0.009261966028048683,-0.013862519213318332
2.68,0.3436325426762644,0.49764096181213474,0.002055985915891165,0.04093987660647182,-0.022050924269353574,0.01430394068077054
2.69,0.3363729298275742,0.48258514557341353,-0.019436064310456747,0.04311988407605381,-0.021921705294952274,-0.018030087437650028
2.7,0.3057720164653924,0.43134979948333074,-1.040923955939545,0.04766963735292516,-0.009928984888971735,0.005243523239035135
2.71,0.35201355694288694,0.5391578215111873,1.2196996353017482,0.03951834106966809,-0.01685962746818929,-0.0012788416676836958
2.72,0.3439404204194025,0.4723366567203121,-0.02438287138986004,0.03925085679165315,0.00939503768764167,-0.003344898252069424
2.73,0.33602467030910027,0.4687184194752588,-0.008638334502383178,0.06034894803869671,-0.01362179027799356,0.0017701159746687485
2.74,0.33501097682293485,0.45847309983140794,-0.007253193599191773,0.044062540456846544,0.013116730880154862,0.0006903986452838091
2.75,0.3315340852629053,0.4583155112219424,-0.003421889776583766,0.050094882568192604,-0.025047818334484072,-0.006651350867886029
2.76,0.3283967221677782,0.4728379326563484,0.01556331427500959,0.05072234898969963,-0.01133150355183462,-0.0016957491642231198
2.77,0.3245777670096089,0.45580801414737104,0.005899761843602087,0.048035139629718754,-0.002660380731711525,-0.006053089432046991
2.78,0.35969670488022676,0.4498837230275859,0.0018528998830632003,0.05628131551084128,-0.01398847467221891,-0.0038975185317104808
2.79,0.32261640376074185,0.439332772546535,-0.007878680297817313,0.06455264222163357,-0.019162300071443036,-0.003931915741138931
2.8,0.3302362734749706,0.44198384088938875,-0.006487443620786555,0.05703515915994121,-0.004036507038376259,0.009246825757901509
2.81,0.3521984889118749,0.441991811846656,0.0042987712923574775,0.04112283964026617,-0.00016198395818438176,-0.0019957590927558223
2.82,0.31385278943860734,0.40641872187863926,-0.5131534892779703,0.052748385112131715,-0.018434138775056993,-0.0039153110969372025
2.83,0.34931396782000695,0.4252321086838941,0.03548242531988286,0.032648019770306624,-0.0025208632693574018,-0.0032068862394622594
2.84,0.34717776271571404,0.42668805662690384,0.027740008676988448,0.03709444418489203,-0.014946676585857748,-0.007037471483793613
2.85,0.35152323249626183,0.41118000679946404,0.023108474333459958,0.04231506264489602,-0.00783813319203663,-0.007672813589937956
2.86,0.34886207433570343,0.4165336246587639,0.21822567555255726,0.026535116800159873,-0.011588667529871016,-0.004608814055906763
2.87,0.3486414983895661,0.38650153803465864,0.000819705682648976,0.047247955354332315,-0.012444379004398529,-0.0010619672190740985
2.88,0.35795350024229394,0.41636093711391087,0.004789384730626793,0.05279271093417768,-0.00775141189753282,-0.017765019872715934
2.89,0.3418796860592425,0.4099473169069662,-0.004196408470871745,0.05439748839212625,-0.005940732232168067,0.011723691220181536
2.9,0.3358814534912551,0.39579169636173167,0.002204984798196044,0.0607202793137047,-0.017390278399664394,0.017643075616477835
2.91,0.3434556089655566,0.3771154756653868,0.001853279457754542,0.0584963627927314,-0.0187565010064738,-0.008070116198331584
2.92,0.36312106210288864,0.4127255395765625,0.2626830866089522,0.044970633648305926,-0.002851649991758711,-0.0038008784583138996
2.93,0.3527478064339101,0.37210045249823664,0.0073375498830866945,0.059620592501834706,-0.016900007067999663,0.005783719183939363
2.94,0.34969396671249564,0.3656297721504292,0.01090643093162,0.04683448234001064,0.001805626483728522,0.00647052207883786
2.95,0.3462172556929025,0.34588566314275465,-0.0018770755466756273,0.05859005302061349,-0.006538987721804192,-9.866124928520559e-05
2.96,0.35491393244444036,0.36341247836733326,0.007675439746540366,0.035967971433145764,-0.02723618926475407,0.0034612372199340066
2.97,0.3560271463133697,0.33239324026914335,0.01598716327137751,0.03593250501849049,-0.016685062568671936,-0.002729739396715989
2.98,0.3614966730695123,0.3418854893434377,0.026155174665873186,0.05706599660096297,-0.012446859969966733,-0.006052890707106824
2.99,0.35879138458755067,0.35669618462157854,0.01289820421745878,0.05880425915767613,0.0027339846769796694,0.0032838486850832356
3.0,0.3543750184294206,0.3382406082616735,0.00023019308238722124,0.06689517947875581,0.0041493839048201775,0.011546939925591974
3.01,0.3541092810104335,0.3399609375938237,-0.00026266546651799224,0.05336669541872229,-0.02818445984040635,-0.010643198224787329
3.02,0.32871178604105855,0.3255246521579416,-0.8738850239061392,0.036509576004497,-0.01593284457153298,-0.0015196336863054763
3.03,0.3703873118033262,0.3200384633817061,-0.08561848009168922,0.0651824155012566,-0.026164793383370598,0.014785732437099054
3.04,0.38425197970429187,0.3095219184401072,0.06576444537835369,0.04453173565268001,0.0020119935522929615,0.01224097865083153
3.05,0.4079870623777508,0.3438340747726901,0.8011526244873979,0.07628300037526195,-0.013920737424706143,0.003581306231604328
3.06,0.3701571325435132,0.32490937153024263,0.04479470646604245,0.04704944848805558,-0.012514860309799147,-0.01585055815564328
3.07,0.3644381485149421,0.30231461362555473,0.01765011315458164,0.036627758768071075,-0.017434433220900443,-0.004637169492304379
3.08,0.37566615219934496,0.3087027486319666,-0.013294297693736145,0.07353399414402059,-0.017803845619633468,-0.006142203802365316
3.09,0.36968570690060026,0.28797677379951997,-0.012631142335527083,0.0517961078096586,-0.001359758546521974,-0.004116300077791494
3.1,0.3500740453317703,0.2850621010214314,-0.22054585813217686,0.05749326579357377,0.0033567628249856645,0.018138865422963026
3.11,0.3883774884000738,0.28787082387837376,0.01745446031680037,0.06638057498712743,-0.005753287359971011,0.0017425704063587589
3.12,0.3232046773191351,0.2618129496524301,-1.1950726310215471,0.05575991085306278,-0.00211146071221626,0.0006092614716306567
3.13,0.3867959955640329,0.2871880426055428,0.08805588813622303,0.056083417098297526,-0.01848397156223501,0.006099757538936844
3.14,0.36769299467796257,0.27636779803787664,0.06193778909834573,0.033701213864383385,0.005741441369191265,0.012319046504008273
3.15,0.36746546003478164,0.2692761187747556,0.07149023493122977,0.057737676946451204,0.0030544895886623923,-0.00956700780799405
3.16,0.37471783167690315,0.24923393036932906,0.054908740100669755,0.04354994937910377,0.003431481636472526,-0.007798589301855894
3.17,0.408195883047621,0.26452844319468977,0.8046038657581447,0.04351194007324849,-0.01203508293742735,-0.007729814703864262
3.18,0.363871750418561,0.2565561493934505,0.01999392852517129,0.026509951089762316,0.004796526530385312,0.009519889881516242
3.19,0.37111073079234547,0.23085766012586417,0.012546192375731213,0.058917678842744445,0.013075752765039486,0.009774712564883116
3.2,0.38195795503377067,0.23393312077989098,0.014197779621630045,0.059479230972146295,0.013521982496094532,0.0008023842652355203
3.21,0.37211486293133955,0.2208354192605171,0.007530499011445139,0.05514835955590134,0.00510971941972623,0.015756247164035998
3.22,0.3918349344018002,0.2542250589995654,0.06811096273044553,0.036059843794469845,-0.00800020813553901,-0.015300216540505349
3.23,0.3665790948364995,0.24120199629816963,-0.04645371903942353,0.043025076949029725,-0.0017224899143108768,-0.0013967212440277746
3.24,0.3715098639963309,0.21923667574006778,0.5792262863925806,0.03900690507474218,0.014310563820369132,0.0072159572560577725
3.25,0.3701688861900833,0.20509450223152806,0.00514200816417083,0.03362227372886633,0.017998081381091626,0.00022817576162958704
3.26,0.35194134219143697,0.21089348968294297,-0.015661677574257876,0.03946746064803854,0.011235281828910416,0.00652148425843631
3.27,0.37488194784310386,0.21373304484942476,-0.0092064847540472,0.04940208106498849,-0.019252062236672602,-0.003530156798217725
3.28,0.3743748370762627,0.19846528339058978,0.018156364505259332,0.04905646918329751,-0.0038857406853741536,-0.005826319140492061
3.29,0.36415410044644675,0.20988847417121162,0.01194983221180164,0.04426117936182073,0.005786821047305603,0.0008248082759217604
3.3,0.3830907440146904,0.18117465861035364,0.005138719027365435,0.04512229879395966,-0.0024151228884143174,0.0036342802009519423
3.31,0.38933030899809323,0.19676297600663883,-0.00732934076894195,0.02663542223756228,-0.010463756945169874,0.0012122636506270924
3.32,0.3740020996616912,0.18227691098314242,0.008384075903203355,0.025732254418200602,-2.2687246762115483e-05,-0.005569164529725608
3.33,0.37569501399645605,0.1833609772999203,0.010109778772301532,0.02609704796828783,0.01653067977601884,0.011376186621593457
3.34,0.3741084006547571,0.17887693488425066,0.008702917796352832,0.058653558418590185,-0.0013342331915144456,0.02656995160767646
3.35,0.44181353036399135,0.19900477473665265,0.8585773046686446,0.05304572422521371,0.01579400050229363,0.011287384176147178
3.36,0.39737658031033135,0.17541585854063707,0.3429683652689407,0.039509843037237466,0.007468182526193418,0.014987633606583978
3.37,0.3613552683676597,0.15453941221440623,-0.5494909633509071,0.034830181017653485,-0.008334800904977851,0.009124166144971736
3.38,0.3829868863955654,0.15689419278142758,-0.0230229817323112,0.0412839370384027,0.0028731337593922877,-0.019082518767216058
3.39,0.3823140335755051,0.15614166529501106,-0.027205436401792828,0.03676524689002477,-0.009660006280383136,-0.019615562033153337
3.4,0.36856325595721273,0.14506380316714934,-0.011574621854598413,0.04875395428419063,-0.009308781522533255,-0.009736981160769001
3.41,0.4121753800109776,0.1565185152545095,0.9441460075572647,0.03583936986145053,-0.006588939173210602,0.0002125183420587242
3.42,0.3679806046409473,0.14858629298704668,-0.0695030955352425,0.0391811325954786,0.0009947262350499132,0.0043981771382483005
3.43,0.3758125574707446,0.13310883911072685,-0.05599043681484188,0.0644746874411102,-0.0058493336620827376,0.006292399978784825
3.44,0.3565433292785623,0.13544339361235266,-0.03966995251627253,0.039218190006124296,0.015214152027484289,0.0019388721001166575
3.45,0.3881738537403906,0.13965526637069925,-0.03485350114040165,0.03893794972426229,-0.002865072624626746,0.0005140533506491206
3.46,0.35850101978894594,0.12867959687220962,-0.04104187402503259,0.029203600428827418,-0.0035854744483594277,-0.004358989837797712
3.47,0.37265576638647213,0.13555876271891867,-0.03634128974246999,0.03079703711249528,-0.009084269815156582,-0.006439194910589626
3.48,0.37362638226469796,0.13577789908727575,-0.02824610862040168,0.04949801336643117,-0.0015342002233842788,-0.007755913051022488
3.49,0.36116367417652356,0.12642230550078798,-0.026182330820510955,0.04960692555795107,-0.002342096894727428,-0.0007875921758450058
3.5,0.37103976614764367,0.12195973218204256,-0.04376361569391535,0.04024524431699171,0.013083038215456286,-0.007411847288495935
3.51,0.3635670872947018,0.12012919722595532,-0.026178407462119767,0.0013882891205943756,-0.01178074834450359,-0.008868587706060267
3.52,0.3772619046340288,0.11826086997458402,-0.02084677593081427,0.009835234566989235,0.0021382137489956007,0.010194929414557952
3.53,0.36326376277596045,0.10658719791368433,-0.038168154349589964,0.03200205428520634,-0.0085972402087745,-0.005968940176273449
3.54,0.3695393764161324,0.12567246388464776,0.04988740092672604,0.04019745303051833,0.01907086437350434,0.011331417816751982
3.55,0.357971469448371,0.10613209156638909,-0.02208446472762929,0.04639781250142061,0.012524952866066204,-0.01670240064490948
3.56,0.3784421051731999,0.10432860579271691,-0.0068792726089275495,0.02369197882896021,-0.009918005213469671,-0.00859412871796026
3.57,0.4268907477681912,0.11308226338324442,1.2160544943318214,0.028974440509427102,0.004597252356695954,-0.004980600690677824
3.58,0.37180403779868326,0.07699609229508705,-0.07239031279201891,0.04727629458337297,0.004712655295879852,0.007816806912570369
3.59,0.37380608705386037,0.10669024539019464,-0.08375083416503643,0.035721202175525386,0.005263487030653196,0.00392996900359059
3.6,0.37746812314451533,0.09077680749755099,-0.09071168563938681,0.04831244715200164,0.010806983183308935,0.004919149560727917
3.61,0.37926219343152123,0.07872740702862203,-0.061585082901649595,0.024523013805320713,0.005449421141400996,0.008613074100456919
3.62,0.3339790012470265,0.07318896697736338,-0.45412550907823035,0.03729814026820868,0.002338709631979795,-0.006004588956193864
3.63,0.36122707434796597,0.07797660752066875,-0.03383759059095359,0.041580141123766096,0.003358235198408359,-0.0016013194503913348
3.64,0.37821376284082786,0.06681323627851997,-0.020525436160817437,0.04724457672968593,-0.00934196948876775,0.009650863967315014
3.65,0.36142463357189647,0.08302927690110479,-0.012779261133118544,0.04140775682503259,0.010453942787026797,-0.012260960218109528
3.66,0.36093022287755566,0.06475869946645263,-0.024056567178192715,0.021848919451902815,0.005490263486621063,-0.0024903058839300827
3.67,0.39730951249841273,0.0433085400884947,0.7522344715861338,0.02428352801256714,0.010294017152055041,0.00822954645226066
3.68,0.3638492407118756,0.051073901731435334,-0.0775269365899804,0.03137400285965054,-0.013973123012239606,0.015590547518544516
3.69,0.3778713378673688,0.04384289569061937,-0.07510571808713404,0.058769194005355956,-6.270599263133859e-05,0.00726453791959684
3.7,0.34729820014191215,0.058238010810499806,-0.6439341039276048,0.0519233576918081,0.00192415814966601,0.0074847492233165586
3.71,0.36698199053659664,0.041228219084330206,0.0014393913948610795,0.03831518180207633,0.0012957951970597424,0.0035804634867771124
3.72,0.3830964285599728,0.04842115083421038,-0.014768442759374032,0.040410948761397496,0.002046709985935903,0.0006112010664665883
3.73,0.37108183337195394,0.027610221325417912,-0.01913758733085074,0.05274105082595869,0.0031985244818502137,0.026341399919641732
3.74,0.35842809678571796,0.02755817568025983,-0.02992585886237134,0.04740298028106251,0.0031734307044391534,0.009877116470941855
3.75,0.35550169535340875,0.02542535936823951,-0.01902965639639191,0.04630078192884485,0.0014876128746947638,0.01611163433957218
3.76,0.35225629444189543,0.026258884832404832,-0.01896848437949799,0.04253919704951239,0.001005047609895034,0.004751893087539537
3.77,0.3439767682166227,0.025435636411661973,-0.33992618066521074,0.023910479162290655,-0.010731115470035968,-0.023067954798785567
3.78,0.3664472797132928,0.005368067136052923,0.0008874643491333435,0.03626926828977171,-0.010998541991671551,0.003727889291340731
3.79,0.3875119588516848,0.011049172272431886,0.8960362440985368,0.04595775441810408,-0.005407913524780232,0.010044046661332143
3.8,0.3755592943289668,0.0003759131682583017,-0.06096913939279634,0.03976391297636847,0.010405440923706013,-0.014532399287177169
3.81,0.3660527578764457,0.004384668636337586,-0.052912416199427936,0.035616669648447716,-0.0002843563408519694,-0.008651946158551062
3.82,0.39741801504051927,0.0016118159037609289,0.9066848193014984,0.016048187924173268,-0.006174505981693603,-0.005101783747303195
3.83,0.35725998482731547,-0.012210935247363632,-0.08823196778992437,0.025305106497074268,-0.016382005769901,0.013438491171959062
3.84,0.3842193310270149,-0.024836962496777915,-0.07950782487826395,0.02392909959528558,-0.00738830868451817,0.007081312326994549
3.85,0.32376517356991974,-0.009538662671901944,-0.9876991833849248,0.03834407232336292,0.005933598597920682,-0.004213568747383291
3.86,0.3747735215698269,-0.031670643891537946,-0.1549850895989088,0.00712658086389301,-0.004406008430851475,0.010703832085544884
3.87,0.3851598504365901,-0.025425210280539658,0.38579066522844035,0.02283141862556687,-0.017767882511623184,-0.016703020314649354
3.88,0.3561984612917336,-0.02671171190811889,-0.050717301368667506,0.047812535845896835,0.004087717437622511,-0.016323798152239007
3.89,0.3886263723942613,-0.021891770033401883,0.45300292090750965,0.0234662275906865,-0.0019457219174959049,0.0033943691342682414
3.9,0.38013224988586264,-0.010824155927420797,0.17451098944050422,0.030023097731767326,0.03084586447518662,-0.005851640536565326
3.91,0.3580554979840794,-0.021328114431737235,-0.07125790611154463,0.029484509857726146,0.019527980848472622,0.00045439670034325835
3.92,0.36300900797392693,-0.03447985105737696,-0.05131276371861463,0.03609262047207246,-0.006290780266486606,0.0016396345655870339
3.93,0.3715121191481858,-0.03363567680185021,-0.07244321993346652,0.02345176756766993,0.013049700818749602,-0.025932181882898097
3.94,0.39387216744698,-0.021138212851002904,-0.06969418026090402,0.02958034873092507,0.003071920139620385,-0.014127493892190816
3.95,0.3660795404547428,-0.031035924661621524,-0.19732382742828516,0.034120820700694915,0.007066836066438779,0.0032655049253009208
3.96,0.3588558098754751,-0.03810978540547925,-0.021886233682876677,0.03299952631714044,0.0013792441019602197,-0.010993267582608362
3.97,0.3543960561786553,-0.02290864755283707,-0.2828437601843445,0.023264862691645575,-0.012127873755281187,0.0052844691364718425
3.98,0.356218312386997,-0.05268754478834291,-0.01824381610358055,0.04271117356374798,0.012726503222810262,-0.02476601369152413
3.99,0.3513048705071501,-0.04155121104618954,-0.16057937918889667,0.02874855480288822,0.00423116788143909,-0.009689296679926084
4.0,0.3565664964697582,-0.06568533607153727,0.1039025692055207,0.026414677933966,0.010854131955359312,-0.03386427517217109
4.01,0.36432463291602785,-0.05628618788181501,-0.0461161028645457,0.02041714140170696,-0.014496743876193806,-0.014904005757399398
4.02,0.38474266039900246,-0.05245505431115801,0.377416039664606,0.0033901972938402067,0.011260032938522168,0.004823226156720102
4.03,0.3730080655137187,-0.06422346777398205,-0.03844177371446422,0.01884614423307717,-0.01286027054755603,-0.00494623626219236
4.04,0.3924697328971752,-0.08740445702839686,0.6314508737030613,0.03780213379519814,0.004087568729697844,-0.003315338226629431
4.05,0.35431850020967487,-0.07833658636158612,-0.07319970967250422,0.031091544401719375,0.01732385227469946,-0.008440996663529807
4.06,0.3846645195452464,-0.05744545436967736,-0.0759917579111516,0.02151542515371697,0.0019478305588532363,-0.012023912579706308
4.07,0.37232189336653776,-0.0679918100483903,0.133523264978783,0.017522819857392714,-0.007053596339977915,-0.0014012706930169004
4.08,0.34872779435461665,-0.08222566945734806,-0.06948839336808715,0.04989100027116379,-0.008055815112511293,-0.004474229932253718
4.09,0.3609074887597617,-0.08098856780191671,-0.06552831507147466,0.04313958647288728,0.0023751733509884045,0.003957823747484614
4.1,0.36391373078960276,-0.0681681140015412,-0.05035452349859787,0.028474463491335436,-0.0033040492723904868,0.0025262601268715
4.11,0.3671175465574895,-0.0822043518113553,-0.040919685016915,0.028377332013576707,0.0032456642795578566,0.01638756976844335
4.12,0.36306463220659735,-0.0964021754957483,-0.04551656310289036,0.026207210981311187,-0.003282180277474606,0.009712931020265039
4.13,0.35730660694746263,-0.08807577417991476,-0.03909001038181745,0.03092762644986225,-0.005907245063176341,-0.004701079711849631
4.14,0.3721006986796081,-0.08345826743741368,-0.03478864527444561,0.05006728663394726,-0.0032848715440565238,0.00019468795944327984
4.15,0.35580308360692886,-0.09572224606595471,-0.0664300930637621,0.05416188829635882,0.00862562563629247,-0.018078933155022337
4.16,0.3704119831823371,-0.0950469799112255,-0.032994756662800065,0.05618728162414244,-0.007865100523398196,0.014355720061599598
4.17,0.403623521823349,-0.1182288278305979,1.2097008818860544,0.03493684176954053,-0.014868448389157553,-0.009584221460038605
4.18,0.3638004408030043,-0.10551661491720077,0.30078740768931983,0.042753185418123466,2.5215375246208545e-06,-0.005292134171103864
4.19,0.3681604701567802,-0.12367533658718025,-0.11184006695718182,0.03284650132195028,0.011558015626071129,-0.008462174046306493
4.2,0.36403169180257927,-0.12635005335879113,-0.10391516053418301,0.019690163447331165,0.013838123286136882,0.0011337124766371436
4.21,0.35591896207851603,-0.10250679213990858,-0.10664025665921444,0.029247886408484195,-0.008911508638877078,-0.008085062293660792
4.22,0.35885616075831744,-0.10781212064901047,-0.0782064245624137,0.02035963354524921,0.012320103125128472,-0.015374525834529194
4.23,0.35391499162045975,-0.11888593555228755,-0.10494035899873527,0.017956666079070524,-0.0035818148477056123,-0.01187204406643839
4.24,0.37281299931225137,-0.1111101802297998,-0.08141332774500183,0.03730905484318776,-0.013586978263606487,0.02044089483341592
4.25,0.37116217978055543,-0.14582928781266424,-0.07724946104762713,0.05763973719940665,0.006725101058582543,0.001835823577582183
4.26,0.390526471284442,-0.15308916003949047,0.47686724506189027,0.04047593092184441,-0.009317465163154126,0.01492143637901711
4.27,0.3553456310968615,-0.13845691938064814,-0.18903312783276668,0.02400803824422888,-0.0032600171226375117,0.0035113278900711442
4.28,0.37661910319151076,-0.15164755335041555,0.448832604315192,0.025678319774243057,0.010756766239402641,-3.029030062838816e-06
4.29,0.3446346892016907,-0.16433275475385015,-0.10474412983738574,0.022633973580350276,0.013516260698960093,-0.0029845389475702854
4.3,0.389215591956127,-0.1558834655261184,-0.0940522086722215,0.03263386137758964,0.017336701994669048,0.004230032261111843
4.31,0.36101620464341716,-0.15272758974939918,-0.0941440107513804,0.004993795117771926,-0.0018139510584528075,-0.010208778388583951
4.32,0.35728826462305335,-0.15413441941547956,-0.3063223222362026,0.020301304991935942,-0.0027625119850164166,0.010492592952748007
4.33,0.35286042172011417,-0.1580682520364483,-0.06678650313592296,0.03980708103622105,0.006257808024530042,0.0019631856254197742
4.34,0.36221011071727494,-0.13985820877288674,-0.07921430852752909,0.02992437862466764,0.02873674046043735,-0.01816706241821481
4.35,0.37494094937504163,-0.1540661814587422,-0.05576657031390636,0.011031992276262816,-0.0008120934165033473,-0.0040766057611872405
4.36,0.36042448564686747,-0.16099598853356017,0.2159950078627586,0.009366863821182535,0.006490259582703952,0.0041120534083937035
4.37,0.35965660695197876,-0.1559950424415723,0.11742169763879116,0.0006024873426487363,0.01956656979949816,-0.0017129091884007968
4.38,0.3768224536357323,-0.17648236029862752,0.2087692647085859,0.015446716847873862,0.006066023677590299,0.0017335116175943666
4.39,0.36367703032589305,-0.1593680122701512,0.26930227573856497,0.013508736462610405,0.01211453434314337,-0.0046229634133234465
4.4,0.3643783487559819,-0.17655153787903285,0.3424560608329292,0.010784125465226776,0.015325282363127718,-0.002792722096510116
4.41,0.34672196864399085,-0.1656806758270364,0.408407949672115,0.012692733617974846,0.006029995903817646,-0.020149163081732632
4.42,0.3768914868660293,-0.181142274880078,0.4569079510101318,0.004584315048541028,0.016935772809492204,-0.009508770609755727
4.43,0.3719453896403823,-0.1720576473737446,0.5226648449968823,0.0022389613885663556,0.01870869257617473,-0.0035752887750768163
4.44,0.37819114526693504,-0.18662692722319174,0.5507477482600293,0.0165308571852909,0.02299315685157197,-0.0024402966100700897
4.45,0.3671991918513872,-0.17776869026029563,0.6130300363865562,0.033556450842101036,0.022840953392966715,0.010368833868936021
4.46,0.3675864289991922,-0.18273077195981946,0.6340935665683769,0.021656555727033358,0.013217084504942635,-0.0034666855487506558
4.47,0.33023260856268444,-0.14740039268781047,-0.5051002654349669,0.0037438602621064554,0.00012037356699998343,-0.004263464026861832
4.48,0.38141581245706124,-0.20021731617694466,0.7824310223818747,0.00699472576944187,0.030038061972680254,0.014510056488229874
4.49,0.38830275761369837,-0.20071453904125405,0.8265022767867589,0.02192532064624857,0.023043521250679728,-0.009991940107891058
4.5,0.37861774272072024,-0.18836641156083833,1.0198848757279542,0.03476904612078473,0.009201032109207023,-0.007106527375789514
4.51,0.3870034203739838,-0.17803224849885751,0.8572811405820524,0.027966634126805855,0.005558587184127059,-0.001422067546324538
4.52,0.36804287816019404,-0.19595065787173285,0.8881440498486025,0.020497290934599302,-0.004049924440949234,0.018974795645066704
4.53,0.34434148872823694,-0.19439386829958866,0.90579976675457,0.00808353632209934,0.014429205352246417,-0.02515602306265819
4.54,0.3760458748661452,-0.22618079698138413,1.1947348397756679,0.002017783109587723,0.007232221939194972,-0.002076104406845888
4.55,0.3892715071429989,-0.205792392647249,0.9345354876968838,0.001737388893480775,0.018997566116098537,0.0022276297560936357
4.56,0.364801917437056,-0.2087259791136256,0.9688481730121213,0.0016158690384660108,0.008839810033713478,0.004028650289293787
4.57,0.35879331406768744,-0.2164888399497679,1.0007245306212385,0.016310598806632905,0.01581204232543614,-0.014393409000025397
4.58,0.3360449954281988,-0.21315523119966412,1.0181510239968872,0.02349816864168994,0.012828030113020741,-0.005414160627098477
4.59,0.3451314395633679,-0.20761470576857213,1.0381431460733819,0.023874502615028097,0.010286723429563834,0.009738804493779979
4.6,0.3748444557926591,-0.2263198859416642,1.0801215629423837,0.018760486938430136,-3.1501581380644766e-05,-0.015403806012731794
4.61,0.3699498136365031,-0.1909391164765057,1.085952899839336,0.012042872420729716,-0.0016690241396779735,-0.003310993042114907
4.62,0.3517332752129231,-0.20126970446316722,0.5251188170499901,0.005153540199754443,-0.009932492139140717,-0.009676154170806018
4.63,0.3837789234879163,-0.23639105719813122,1.1556660371936727,0.0031179349322273,0.008651294752174753,0.001304224067249198
4.64,0.3632090238755419,-0.2333105596862688,1.1973761156301446,0.0019137154700457158,0.023174224265457878,-0.004028356939473209
4.65,0.37703855731005964,-0.22350455076170683,1.2032014845071775,0.004995310502748669,0.021046554280600475,0.0020266080107937605
4.66,0.35590768239074816,-0.22210486214322844,1.2274876210068744,-0.006706205317925227,-0.0032382103951258687,-0.007055960601900694
4.67,0.36202958123947704,-0.24200826145575285,1.2359668432660296,0.002926534490900809,0.015543495295655463,0.007991546078109438
4.68,0.3720065848619193,-0.23525090427628925,1.2452121793929938,-0.0008208454454865528,0.011491075083008232,-0.0031534256431641227
4.69,0.35108164921484053,-0.22892488489048834,1.2710019467998372,0.01830620054198708,0.01449846837230881,0.014155567726996044
4.7,0.37332028309026816,-0.22509623490409084,1.2848058069715633,0.004089095948343254,0.032902254845215445,0.0015977535581676383
4.71,0.35717137654773534,-0.23149565621247217,1.2861829298504404,-0.004881219548801154,0.013693944508958902,-0.012662170092181693
4.72,0.37683258165465977,-0.25051093498464466,1.3128197997703515,0.01755004236027027,0.02330734745866333,0.002090638733205215
4.73,0.36290524992854206,-0.2503538991700591,1.3125372994764526,0.00816252757795806,0.003050829404569468,-0.0008737224798222023
4.74,0.35656681573008503,-0.2399107186074071,1.3320257050154292,-0.0004882678679785516,0.004576113031277324,-0.009227597238055218
4.75,0.3752013335259848,-0.22083266539409727,1.3356322558819587,-0.0008228476768276753,0.013141376371738442,-0.002662652442226786
4.76,0.3665694413759973,-0.22472263176070195,1.3438331149799239,0.005379041660959807,0.019818228326292594,0.007070026312336699
4.77,0.3626015045714661,-0.24386615223770983,1.3516987415420898,-0.0013123542901312235,0.02825504783867012,0.016768527321978675
4.78,0.3450399269176582,-0.25109556068440403,1.361968073719285,0.0014358717904230241,0.0026968888521299826,0.01419768721829692
4.79,0.3462570536277319,-0.22974453521462498,1.3883731519035645,-0.008011915088887387,0.005271346899610294,0.0052032924515042584
4.8,0.34336340395180825,-0.23913497988081509,1.0997223050387557,0.014783559994892257,0.03338389006251125,-0.025708032829828618
4.81,0.34450115373418577,-0.23190416992101148,1.1440031408507962,0.006151499020089642,0.0178668456113443,-0.006967023646759424
4.82,0.3709790849516453,-0.2560416799078308,2.2872337114789003,-0.012171949940307734,0.017123373831658906,0.004876707839061248
4.83,0.33721738534236934,-0.23364328125128456,1.386638637935821,0.005239314183140501,0.021974384625061245,0.0023421553713607853
4.84,0.340193474361648,-0.2264626543227156,1.3903546437471628,0.003405537541053848,0.03392828791243807,-0.002431817995763019
4.85,0.3443671090784683,-0.25143171003214043,1.3974945264643617,-0.013035134997381261,0.015534185158789687,0.007664118485061376
4.86,0.34605387103742735,-0.21977393768922268,1.3996906151491428,-0.003337125458911493,0.013632577970850813,-0.0035760804221767013
4.87,0.33909977333833635,-0.23896918838352424,1.3950476489451726,0.005181579086516584,0.015548921436014674,0.009546321902074556
4.88,0.3420193142113126,-0.23160937647387506,1.4118254777983785,0.009649053420999691,0.020972430481602675,-0.0014961408529987137
4.89,0.3403624559088373,-0.24693687123821975,1.411602901653536,-0.010080102656730792,0.020510677715759568,0.01560413716342232
4.9,0.3188393029704769,-0.22853584942201782,1.406947972233003,0.008323412832555761,0.023939372136261818,-0.005590861938667631
4.91,0.3295550371637075,-0.2388324518690837,1.1810281407727368,-0.007568737392445475,-0.01106101863491133,0.01109811863298757
4.92,0.3627443320657832,-0.24171338228627628,1.7265878844095577,-0.0045360056860815085,0.0014871859286878833,0.01206333237844563
4.93,0.3267577594629038,-0.2322660366890877,1.0962671125756658,0.003054194755185703,0.016885413714283502,-0.011450610611358675
4.94,0.3486515150988378,-0.24174745331740521,1.4471872397497154,-0.007728419392643586,0.023366532099714954,0.024328290748187893
4.95,0.321746913309227,-0.22662370170053317,1.4320705871786423,0.004921974105939664,0.01677602002536845,0.001082992558920982
4.96,0.31249877515210667,-0.2321477354974858,1.4663657262812395,-0.014525838339921226,-0.003449566394126318,0.005742792399041712
4.97,0.3161248195412351,-0.23668851558685974,1.4428727584751668,-0.0032665752901718933,0.03220318032374771,0.009415971932680477
4.98,0.32023715141908443,-0.2376350247919439,1.4138053099629744,-0.007197003499785382,0.0024258259910366724,0.005359323434999661
4.99,0.30782059306016424,-0.25431362271739394,1.4410078512383453,-0.0022910072772577674,0.010069748212522479,0.019278287900936254
5.0,0.3112333353676798,-0.24405588527112188,1.419004844440816,0.00304233991508789,0.026459690732763642,0.01170213774167079
5.01,0.31426243507510404,-0.24330265761621467,1.3149770164443346,-0.017076459926991024,0.003321386144985225,0.009451360177701304
5.02,0.28867033633640915,-0.22645211137950547,1.03744706545999,-0.014352456289808746,0.0013234267689798407,0.02139861434977516
5.03,0.3199618156289471,-0.22632425609032028,1.4482569648380563,0.01292810488209822,0.002952011640542854,0.026896399909678206
5.04,0.2948762002031667,-0.21316882373082266,0.6101150635556722,-0.006457312857366332,0.0018775680155976807,0.011097218513165488
5.05,0.3388018256304526,-0.23639529753653307,1.568035300473145,0.0014039918633577762,0.009336144334316945,0.02843448094969863
5.06,0.31638894796951184,-0.2388011799791964,1.4683411814520142,-0.0017609506581124346,-0.0029931464418005197,0.004004914663943142
5.07,0.2758814975428936,-0.21812315027007168,0.792605894100319,0.0007048584261962277,0.016392614442809497,0.00790484215094018
5.08,0.31156190518993276,-0.24017543976318734,1.4829141138396993,0.005438184391092193,-0.006730093527020642,0.005133792415094554
5.09,0.2996557566697331,-0.245444286236619,1.4782690485421435,0.010458681359959584,0.011344957425391914,0.02339387593194213
5.1,0.29736929459887407,-0.23563698563697785,1.4580625332550734,0.005664900770017932,0.012892041274125243,0.00832642658343933
5.11,0.3142375305189587,-0.24898578190726867,1.4367935714622513,-0.011201763983050152,-0.008809768069048436,0.018292603524041273
5.12,0.3018385967849437,-0.2418883869255624,1.4453351017001743,-0.0049190625414571275,0.005789478109198032,0.018933848390574715
5.13,0.2893117955315422,-0.19438957280376432,0.7085266371758525,0.0019120378628403102,0.016916159779277982,0.0004499944151151536
5.14,0.31306814261271115,-0.25040132424138867,1.4695892188232982,0.012068741548047955,0.0078000053324411315,0.007731770734560223
5.15,0.31070310501686954,-0.2366853640263596,1.4602972006195454,0.008317475945451446,0.010958056748006812,0.014610344347797882
5.16,0.29362053925099724,-0.2304021855569662,1.4326376487733292,-0.007068935879714619,0.0004175592717105595,0.01270281007862118
5.17,0.30800836785374197,-0.20856878892509884,0.9187251819698024,0.01810956112940238,-0.004151647652600109,0.012363848259556609
5.18,0.2886100696625825,-0.24954766454629593,1.4411342710623705,-0.005765366909696264,0.029947552984981633,0.009303927228067442
5.19,0.3068754636173003,-0.22462193846216913,1.4391498809233563,0.008718460335763198,0.019997018968460414,-0.0028399627200956434
5.2,0.2940828652599776,-0.21350106345050684,1.4068840847985256,0.0056792246728080975,0.0025329611296305236,0.022460099081970258
5.21,0.28435030802875455,-0.2431022243579913,1.4258202000554518,-0.007394975278535223,-0.004797873368321034,0.000619872549268151
5.22,0.302894100552896,-0.2443503598715129,1.386320298898361,0.027966925230009147,-0.0028886616473998957,0.0023833986544016927
5.23,0.2950861467456435,-0.22540797979690458,1.387590770659101,0.02257797639695315,0.01174333337722214,-0.012020684839073969
5.24,0.30256848882758436,-0.2275981920432531,1.371857291462197,0.02348444716896908,0.00855089645844947,0.013669529862732774
5.25,0.2962712606387168,-0.22498349903132886,1.3689137404769263,-0.0003953009181270773,0.012131619192086615,-0.0023231915627114972
5.26,0.29743958214606575,-0.24860976596852383,1.364672500343656,0.00543882131601032,-0.007704325843858883,-0.01114736082398416
5.27,0.28948239069829323,-0.231504206165211,1.357743158335868,0.01605351032994847,0.012399818442825995,-0.004593006455956665
5.28,0.2898180028717527,-0.2518185889328887,1.338169152632111,0.014742423083703955,-0.00581924504424524,0.0018763299232229433
5.29,0.25778077510367203,-0.254829051948663,1.3336915819189339,-0.005497468325617904,0.009316906160737022,0.0024391537772931594
5.3,0.28144571654931233,-0.2365900968580165,1.3156968398300726,-0.004874168578126304,0.020016167542165893,-0.010386491286372196
5.31,0.28352984300575884,-0.2545828807459277,1.3074358298748585,-0.003295517407847811,-0.0083175629146421,-0.008196155269705645
5.32,0.26791116474929894,-0.24658754878874037,1.0445848791939913,0.002977627459155513,-0.0003677827214889776,0.014442461423756757
5.33,0.31800503287276655,-0.251883760492826,1.2992507723902977,-0.008888563153711108,-0.00012071525838293785,0.0021806199862582382
5.34,0.2957991913752955,-0.26200230784178224,1.2936801018958928,-0.006230847449207691,0.008624169404942806,0.0020638059383677144
5.35,0.3014234277247035,-0.22536581420775303,1.271583252825058,0.006505350348465822,0.010957604896037913,0.02317548897168988
5.36,0.3016178501370676,-0.24363439930233124,1.2732036103544448,0.013000914485854638,0.010830319863738969,-0.0016780547479419653
5.37,0.26417297866384953,-0.21598426428861267,0.09465929049983901,0.0025180715959434324,-0.009346469992582705,0.005397116537439664
5.38,0.28464620922603945,-0.24855224393158443,1.3012296192306905,-0.014216920686343695,0.01365761359895016,-0.009018251746834113
5.39,0.28173959592184844,-0.25370377002585315,1.284845138264981,-0.0030482411691214175,0.020219628790717252,0.018260043927012116
5.4,0.26990187833302587,-0.22201097794143004,0.8458987466381321,0.005319081269558774,-0.004258891394907205,0.010641023246485713
5.41,0.2882297052251857,-0.23344752475395042,1.297985150219105,-0.017145578302489584,-0.0017908104788117835,-0.011200529937644359
5.42,0.28241977909658184,-0.24372815805076312,1.2668214870805627,-0.0024248796025789373,0.003654410613159418,0.01493112851837542
5.43,0.27934167122066295,-0.25501434241314336,1.2457336428130859,0.002045301326256032,0.018473403319915246,-0.014932068383817101
5.44,0.2890232700527932,-0.23725272815316448,1.2317924045357482,-0.010332709418455497,-0.014911913472907478,-0.004808186323444872
5.45,0.2810563817980313,-0.23516659205980106,1.1048699118938778,0.009571468686433235,0.025091684542766807,-0.00812904420171007
5.46,0.2855245863714455,-0.240460982753983,1.1763331018142422,-0.007737437479940748,0.006673382442167492,0.007507740603047458
5.47,0.2774928890405672,-0.23996284477659066,1.2711176189451547,0.004607481152723856,0.007537102532639544,-0.006871655284683849
5.48,0.2766129216460105,-0.2452482898373925,1.1730134551483882,-0.000582392600196561,0.01461318374895023,-0.010292016862365793
5.49,0.2805401748239806,-0.2106759175429726,1.1678118660884682,0.012505332485152397,0.02381955425069935,-5.136826397915558e-05
5.5,0.2771892618016576,-0.25452061824425576,1.1535166874820018,0.00721991470536117,0.042953059901401865,0.012497724864941807
5.51,0.2786895125169272,-0.22592780458140974,1.1403574873415234,0.0043195821641829665,0.03286683355853315,0.004067666550806574
5.52,0.25434417655979563,-0.2211931706119428,0.2522717543254558,0.010056456266063652,0.011720114849745552,-0.005445328809316459
5.53,0.2732859932951385,-0.23302996333978587,1.1433702406031518,0.005114170693555208,0.004677613422486068,-0.014162052181348538
5.54,0.2667376976830137,-0.23589883831444186,1.1451595407342614,0.03895714875077802,0.0378423681449557,-0.004460490157670339
5.55,0.2710701916140748,-0.23786022215622293,1.1294185598297402,0.012035632670369415,0.018921236810072968,-0.012000925221170175
5.56,0.2494538220859364,-0.25444372422691985,0.9114370323052398,0.009158274227035242,0.027182897839526758,-0.011319639153255972
5.57,0.2549192580957398,-0.2402533439697802,1.1131300224013374,0.0053532862144493164,0.018352863918913234,0.013583219427012305
5.58,0.2625100892825104,-0.2454735776664868,1.1032482665788519,0.029132854025965705,0.0016104309436144326,-0.009047344978784058
5.59,0.26088942766160206,-0.24464037393742885,1.0875638025975534,0.018218900667114547,0.026376004921812083,-0.01729849285311436
5.6,0.23363865702200698,-0.24387266665292157,0.5266300796727629,0.006936089631867677,0.005842977471804521,-0.01933305585214045
5.61,0.23918341537696639,-0.26390520277045015,1.0965555275898418,-0.009563711702923652,-0.014849402317005218,-0.009789816572890131
5.62,0.2564653018300779,-0.24581574193997954,1.0706782983097511,0.0034605750096535605,0.012956983231048947,-0.010394101089964476
5.63,0.24360190455019431,-0.25057931866260574,1.0160877484588005,0.004139122426021982,-0.009849358304483004,0.007424248449124663
5.64,0.24469427596552665,-0.2523742364664549,1.0325245351882537,-0.010443638303045252,0.017282730699696623,-0.007965802625184652
5.65,0.24972780830636174,-0.22967636178798376,0.4414733955156735,0.011405164796725872,-0.0029276172958850114,-0.012357646923321221
5.66,0.2637586344267434,-0.24417076056254067,0.9654069840920206,-0.00941290401109491,-0.001986985137279443,-0.001515285353892284
5.67,0.26104142988362306,-0.25082881449239325,1.0242604788207716,0.013284848287124252,0.003840536472463207,-0.003338136982501109
5.68,0.23715551447935937,-0.25604218576690946,1.0188191958004646,-0.0045914354997442265,0.022711888911944533,0.002356881685791258
5.69,0.2522184661451448,-0.26432144915178646,0.9859842335022525,-0.0054304106576605875,-0.003876430100467121,-0.001388633344104692
5.7,0.2563654480872231,-0.24941521937202385,1.0279554951623053,0.015529274867238908,0.001630267145500578,-0.007576167882310808
5.71,0.21149169818111052,-0.25925003686240006,0.8493411561816727,0.004737336574879949,-0.014833415856630599,0.0017158714339847994
5.72,0.23166149610241868,-0.2571206270189083,0.9612979432721768,-0.0014224550898308892,-0.0021823694317990553,0.010464030762647587
5.73,0.2433880298569454,-0.25777045223274064,0.9428055376670463,0.011470568872270222,-0.004116366858010109,-0.006982711514964055
5.74,0.24200851439238283,-0.26609568668560035,0.9403039592290623,0.03131046879057607,0.020291484787844108,0.01095353085910204
5.75,0.25422199927576966,-0.25598665294515316,0.9110579395150978,0.028020643515663628,-0.0015179310316173564,-0.015412396082923616
5.76,0.21135413439892886,-0.23084283048793292,-0.30361085239446833,-0.0028782318635625793,0.0067306819325214234,-0.0027497627648166096
5.77,0.263381322235626,-0.26033817802157466,1.3720808010193541,0.017922323421462077,-0.019068117951414706,-6.989256440483038e-05
5.78,0.2265990118758824,-0.2474173092460949,0.9297589141767275,0.009054969385696136,-0.0053224458138655,-0.013335948563661933
5.79,0.23027147158807118,-0.2595700294956743,0.9054045825319426,0.009793590741925562,-0.004152695184033278,-0.02562081758558466
5.8,0.251574754027893,-0.2622607065306435,0.8987243486234583,-0.0020718875349358817,0.0048358121511472806,-0.009541724728960019
5.81,0.23903875806062408,-0.2693061432471244,0.8760343926788731,0.010891793762621466,-0.020570962678828887,0.003617897664365887
5.82,0.25040975627091216,-0.25869880102887444,0.8569492789202611,-0.0005920571720127478,-0.002361278132858832,0.007181570696197105
5.83,0.24154913640483094,-0.269350470807619,0.8502174352964439,0.016312808680630182,0.008704762026205713,-0.007702561450982024
5.84,0.23890516130931144,-0.25171310486281245,0.836265871490712,0.004474482353725832,0.0019776385175901538,-0.0356525221880777
5.85,0.25408054314951967,-0.26610524058625934,0.8057930010719986,-0.0026437454783903667,0.005507960776706065,-0.011300698029057326
5.86,0.26119138451758583,-0.2713733937908053,0.7899495230642251,-0.005144001952562869,-0.0014277216829679616,6.308807256061137e-05
5.87,0.22065497331038586,-0.2783949908110009,0.810634408938252,0.015780581851949263,-0.009064527401831321,0.0022094760865044097
5.88,0.24359325456028127,-0.26464165064598427,0.7886129043898892,-0.00036522598845603084,0.004924021888692149,-0.012823399825054874
5.89,0.23356041440001107,-0.24848948067291748,0.7736114624220156,0.017323662306250806,0.0020314850305916685,0.003938308867945298
5.9,0.2321605267813168,-0.2654847124283431,0.7742793500569219,-0.009600424311320115,0.0028104343225902,-0.012287661199061217
5.91,0.22983458999253387,-0.2539392461340961,0.7689598635960947,-0.010448659302813879,-0.010993799346994274,0.013605660043655852
5.92,0.22756340182039933,-0.2469439079952373,0.26236844907444484,0.02084697925166129,-0.00296369676551599,-0.021322867177418242
5.93,0.21647680247773687,-0.2590339951176288,0.3386781402366282,0.00826351975233212,-0.0012093357354474514,0.00019876971499176166
5.94,0.2432677241227557,-0.22846053970979904,0.526830924923635,0.014435325818426277,-0.006991095421070599,-0.009137064436311449
5.95,0.23502159213626586,-0.26343836521790354,0.7503180062377351,0.013225463830551613,0.020884130798454456,0.005460711224755639
5.96,0.23725071967318978,-0.258667063472315,0.7495010141709262,-0.004187741147266836,0.009942394987564407,-0.009130343396234012
5.97,0.22553498457749402,-0.23651379691153593,0.1873252959057841,-0.00024408328802854456,-0.009179989229388522,-0.00010164488779083381
5.98,0.23402680442760435,-0.27403537972658415,0.5489086225392059,0.019740500429396898,0.0018695645065457212,-0.0027091321131042256
5.99,0.2371565733298166,-0.2671506115291555,0.7577708288200209,0.010456029108550476,0.001657174608758734,0.002533128953335222
6.0,0.24120672754704195,-0.2598943024252399,0.7292275555429758,0.013733991805766848,0.017856524379354005,-0.010513463340043303
6.01,0.23700718284313987,-0.2799336796040864,0.7191081165356081,-0.00767444458837487,0.0009744400165904291,0.0051915197801768965
6.02,0.2182897566755889,-0.27167785029187447,0.9330275439451333,0.01584221677979193,-0.020541852117439297,0.017931982423639116
6.03,0.2326662981949524,-0.2735858109729848,0.6557888845722066,0.010196568541469985,-0.0040834856629114995,-0.008343757608255238
6.04,0.2384805899432338,-0.28662127237641344,1.2149474204946484,-0.004670875808243217,0.011869821177496867,-0.012717810018035434
6.05,0.23463902065511705,-0.25666047775282747,0.6219087539700718,-0.01648964096982314,0.008207868918047919,0.0011934773648200193
6.06,0.23193568019768598,-0.2537170550348719,0.11704669982531887,-0.009646415578344463,0.0022496761211039714,0.024227349275461024
6.07,0.22141867337597507,-0.27463133066137235,0.694283753313948,0.002866997833611692,-0.008562050668272609,0.009540817433350062
6.08,0.22835291117882978,-0.2602486765506244,0.6215540330927785,0.008568319017137033,-0.010000717413926118,-0.012198216792864817
6.09,0.21243477830559623,-0.272067725237434,0.6057690513229993,-0.0014535128391889767,0.015821288271506313,-0.010732994768369836
6.1,0.21583774106376852,-0.26422172648511105,0.4283279365705789,-0.004380045956099575,0.009566489312934683,-0.01351773775475241
6.11,0.23511182616130327,-0.2532009869658139,0.38823547129415925,0.005152206780897381,-0.021678047794017684,-0.013542300463360883
6.12,0.23886619673116102,-0.26145235324502,0.47625558749596386,-0.009408305189708952,-0.022270910462722622,0.013003182795227866
6.13,0.219192456974471,-0.26755801682536373,0.47967225848171907,0.011435525638666783,-0.0034586871320093342,-0.005965898503152413
6.14,0.2100428437175209,-0.2278197859884976,-0.6483416818449075,0.02285453735271943,0.01497958037279819,-0.0018388970301604253
6.15,0.23115383925102778,-0.26174997933362365,0.6402773756426899,0.014004751244638451,-0.0013669920580941042,0.02457623527333645
6.16,0.22453603059582167,-0.2778119390931508,0.6330589074094937,-0.008510348627844213,-0.010729671759290599,0.003162374908405802
6.17,0.22151954921535896,-0.2415428406219189,-0.10169690267236985,-0.0021482250143962604,-0.02125663573822218,-0.002068791126994899
6.18,0.23312562032903195,-0.27475781579257463,0.624976029376681,0.0009222501389117401,0.012583311014271521,0.010765614973550828
6.19,0.23726767282228622,-0.289730205227099,0.6023187297298013,0.01152063298985816,-0.004679183030520178,0.0007017039028143772
6.2,0.23516924536349915,-0.2709566475422811,0.58327733454779,-0.0007780286239981605,-0.003738855380072426,-0.002599452979426165
6.21,0.23766655893705632,-0.24991275717199798,0.579208493260247,0.01227000936772687,-0.008498540234763624,-0.0012236357655094495
6.22,0.24244154844591118,-0.25740756491622346,0.5466187995176477,-0.002114476035648573,-0.0007084829902171573,0.01044159261050922
6.23,0.24225144897497924,-0.27878990346635424,0.5294034187751342,0.024983899053732665,-0.008624594261592818,-0.005055117947560498
6.24,0.2156225682815398,-0.2725736224555065,0.5416776253516559,-0.0023785000534896784,0.0010083542358343255,-0.007471267480263056
6.25,0.22412212751565874,-0.2577600503617613,0.22150367686878597,0.029986361507104556,-0.0068560428402917395,-0.005561109032665889
6.26,0.2464995976525613,-0.2779527275734443,0.5287975160657528,0.014966710690529822,-0.015625709708853915,0.010913990764566669
6.27,0.23616575299107803,-0.279366948635954,0.5043420793882264,-0.0013079944731161867,-0.001968709572299848,0.008164598705930488
6.28,0.22798013902795838,-0.2745919148090997,0.5175532326660384,0.0040781868447592245,0.00019881560737290953,-0.005166307764683762
6.29,0.26557236589956074,-0.26947468664918245,0.49798875555237176,0.014684479656785356,-0.01993557629075597,0.004051601899306471
6.3,0.24913100482931025,-0.27479975561857645,0.48749253324172054,0.027972021256642783,-0.008896420289827227,0.010473385572228499
6.31,0.23329211541125505,-0.2805005350403076,0.4880125292480011,0.006777090713718669,-0.006518422568022067,-0.020301935026128294
6.32,0.24812540489876372,-0.2689313463105816,0.4283468224233582,0.010853303010267445,-0.009540696988624737,-0.009438565730612494
6.33,0.22713833032907124,-0.2824892788529713,0.4521641521021211,-0.0014963325541782879,-0.01258483774258426,0.015921791156715572
6.34,0.2322804318827158,-0.271942540165039,0.4572405678673834,0.0029173407364387607,0.009339637364845598,-0.007993232155251261
6.35,0.214905540747182,-0.24370253866618155,-0.5908045697505442,0.019575179979844815,0.006488895905850942,-0.006307904776661632
6.36,0.22659690674263427,-0.27218920157675963,0.4920763076534321,0.0019171397234392909,-0.00021636960368649066,-0.009224153859939962
6.37,0.2542980846486635,-0.2994452786419096,0.7685144326540682,0.009001533494381868,0.01554492304716238,-0.019465690159563395
6.38,0.23775654656713988,-0.29026510602845285,0.44164301334489053,0.012499675756420334,-0.006705878815808986,0.00937358228434078
6.39,0.24808651483067182,-0.2864632712265531,0.41584924395588274,-0.011408898035242261,-0.003967751883470715,-0.01145608394247265
6.4,0.24118142907733175,-0.2719920324402411,0.4005423314378577,0.007347165342171699,0.01288556256864186,0.011832746606311992
6.41,0.2322246572531846,-0.2994204786241779,0.9255455322522042,-0.0017322244592368665,-0.007796474522087472,0.01224921973519218
6.42,0.2092899329509443,-0.25491424551852676,-0.27145236076291535,-0.0006785326198400022,-0.012185084477543085,-0.0023835685937118037
6.43,0.23817897632047094,-0.2880554699250056,0.40338017041638524,0.019821725462969574,0.007416329403750777,0.011061455166835564
6.44,0.23545139754353475,-0.3038007706858439,0.3567784050064383,-0.00518115608984677,0.01913686185524553,0.0019173162186980801
6.45,0.23909560002109256,-0.2881908377011606,0.366174551097763,0.016419223518824716,0.013753289274687316,0.011844596170145853
6.46,0.24419087695277739,-0.28869008446743405,0.3539590047633794,-0.0031462728507418384,0.011074814751468647,0.01851214266572752
6.47,0.19626979888044072,-0.2594891409801006,-0.5101735157391437,-0.00031658863162281267,-0.00043876452306374825,-0.01181767107349597
6.48,0.23599794324479306,-0.28233178783772306,0.4188844935806868,0.0123923084242735,0.024503127426874237,-0.003069622943845827
6.49,0.2484447265266169,-0.2887341405746266,0.3781443814990375,0.016913975938171184,0.017645619255470396,0.012764815730364577
6.5,0.2407414487371061,-0.2819734601415196,0.36238024943183733,0.007517814063994645,0.008246685754709396,-0.010587099634460652
6.51,0.22834910612283196,-0.28743398471034315,0.37599876362825446,0.01820271785827704,0.008808482480196955,-0.003702164479504791
6.52,0.2222347042008457,-0.3098332052063393,0.352184027409811,0.008636119468164356,0.008784084459792042,-0.013249636344642603
6.53,0.23335002845522265,-0.29677864545797344,0.34291572270074494,0.008609699112501435,0.0075027988519752046,-0.014453176143421155
6.54,0.20066550475550116,-0.2931621815133557,0.3440734875004392,0.024380607296237942,0.0022920346078716437,-0.013410968865685394
6.55,0.21387384568357887,-0.28545605026590815,0.3253235234747055,0.005276442473893213,0.016848424850350156,-0.009634677309271457
6.56,0.2088791101312508,-0.27263834433150375,-0.1625130786894249,-0.0025826198348470096,0.0005893623334048023,-0.005861973838038168
6.57,0.22805310150938515,-0.3152126073911654,0.3537072112046948,-0.009045580192345935,-0.012757886789524768,-0.019016825936351164
6.58,0.2331826801806182,-0.30254679417204716,0.3389626831864021,-0.0018927019520249945,0.0026837382177026777,-0.005574194467444407
6.59,0.24099950518987776,-0.33517889960702574,1.3083348223780957,0.0031225226134636635,0.018840829967302575,-0.005045821538744256
6.6,0.224651406973961,-0.2799075626064035,0.26078429956338306,0.0010814607872377743,0.0028371633043489403,-0.004702227164804995
6.61,0.195457862405793,-0.2900737156451119,0.260665542633939,-0.013972970481639096,-0.0020784555925651774,-0.004333217945746466
6.62,0.23141808668270647,-0.3049624053130677,0.2635460709456957,0.0029820032230524172,-0.014193407855141501,-0.007670194665238386
6.63,0.22112015614972247,-0.2926071054099111,0.24194723252349143,-0.012859077096463167,0.018750025335375946,-0.018259727143713787
6.64,0.23022216320531827,-0.2828933586978663,0.2592638912710562,-0.008133775288296346,-0.003050192660753081,0.0010492458044892364
6.65,0.20306715426038915,-0.2704165760472091,-0.6211199905631041,0.004702242391229509,0.014357062394737398,-0.013499388807652953
6.66,0.2105382418511974,-0.295594477348258,0.03856040847321239,-0.0028144442436911776,-0.0014742939373707906,0.0007846477929483917
6.67,0.21551569271256127,-0.3034389248524112,0.5537797401929665,0.0031696552342106764,0.0013945806694331828,0.002053674454750385
6.68,0.23051403715786561,-0.2976396041533565,0.26056385813246596,-0.014893442691621928,0.003818064208135706,0.010118028630220419
6.69,0.21792458975871862,-0.29344585285910885,0.26546214306170807,-0.007182996763161691,0.013147327350315794,-0.007022564688033229
6.7,0.2281302600050156,-0.2913947773114494,-0.0072210381769437365,0.01848678785078809,0.031274507917270954,0.02301078677465041
6.71,0.21942049128594593,-0.29363432644223864,0.250755408121705,0.005104242628319487,0.028091112196174703,0.012816716029012227
6.72,0.19972765298682846,-0.26159102087728886,-1.0449870877159113,0.010145686455206422,-0.0038470538254812784,0.014191184211683111
6.73,0.2128982188309009,-0.27818798435807573,0.2848276765541988,0.00393362697267208,0.02194519186382629,0.002763805677185515
6.74,0.20727754665616804,-0.29403656672311634,0.3454365071545995,0.000712860074093641,0.005720501096491906,0.002550022050158988
6.75,0.21841073021265311,-0.3009973352952866,0.2870923770392064,-0.0037127423714988315,0.01651044364327757,-0.0015648948158235925
6.76,0.2012764387146525,-0.29289328341797544,0.2754448227491262,-0.007181088468088123,0.0071245781585221385,0.01977282979289141
6.77,0.2068388894800183,-0.30738258443917765,0.2449218229072822,0.005280883485324111,-0.0013078273596268414,-0.0051569758130843805
6.78,0.20867438532173294,-0.28081224687473255,0.23476116078013246,-0.011379199198787757,0.0176058160537138,0.013722301508748425
6.79,0.20211596887821176,-0.2789018155501563,0.24511552295068612,0.011644108657098366,0.0049299053593339845,7.164681480308793e-05
6.8,0.21230035847301293,-0.2768566453985314,0.25259261616389034,0.0008909941348597332,0.019305439989047258,-0.003886559050413887
6.81,0.1837539362382943,-0.2735487861000302,0.21163007319068478,0.005412686948561368,0.004423192754140914,0.017737066697956806
6.82,0.2079733317589003,-0.29285653747600515,0.22865316740394476,0.0006843397652234637,0.011522704231497958,-0.0063086352336056625
6.83,0.212013446113624,-0.2921952557605982,0.21269144046963662,0.005854364099084129,0.02030037489035664,-0.00419152741074982
6.84,0.19580824634535746,-0.28246822998103943,0.22554571454610378,0.010084127870693547,0.033850130351594544,0.005798499102894079
6.85,0.19355271438860308,-0.30074572215050566,0.17789687502264168,0.0055600797971255365,0.021059672346264813,0.0063703796187642835
6.86,0.18277661426746122,-0.30314800709340006,0.20361185619519856,-0.0022155438677113086,0.01928896219826818,0.01140473328775863
6.87,0.19903681772803886,-0.2876858363246857,0.20805096463762293,0.00971621859166424,0.0048155070151297925,0.005846339459608832
6.88,0.20467272381037865,-0.3012290268250979,0.1851921617453918,-0.0025938408789356084,0.027368985786941358,0.014489647899507406
6.89,0.20677926405544111,-0.2681861617402693,0.18250321980411038,0.005031833046038376,0.010507408747431838,0.007539300999540802
6.9,0.1937559515488769,-0.3140641419329141,0.2846178397152073,0.0009209255110922019,0.020827519128565182,-0.0015743587466656214
6.91,0.18596992896838813,-0.2620655227005173,0.15777258977553635,-0.015359466051027967,-0.004295202265746138,0.0008812992712255987
6.92,0.18828989713089514,-0.3066464493301441,0.1612779025093265,-0.005620238644485004,0.0007350868157013305,0.021618088518971495
6.93,0.18927537179711784,-0.2829135465752259,0.16397631408122437,0.01028959601280147,0.0076167752982163614,-0.007475677626235714
6.94,0.19493709314213853,-0.3111671283012949,0.13902451206962424,-0.009626617441209597,0.004433107001193814,-0.004897326038200027
6.95,0.21239042139518644,-0.27802054677887794,0.1570756301908603,0.014548169024863776,0.006534872991714886,0.006727853363565243
6.96,0.1831225497178009,-0.2946786331022055,0.22758835357534848,-0.007608242541168503,0.00028170252893016095,0.0017164830676390996
6.97,0.16603518263376957,-0.2785624714874571,-0.07767516538566667,0.0015781434865053496,0.008192056243425429,-0.0064503868088539255
6.98,0.17197560900500755,-0.31113297474007956,0.1463139555931314,-0.015338212510325935,0.007207254742924544,-0.009527147571762366
6.99,0.19923962905217588,-0.2763822777120767,0.13580436720415448,0.012989984059459293,0.0057728176160050035,0.00021124971580734606
7.0,0.19097364622799,-0.294184534910734,0.11160034619191395,-0.0015152709221228815,0.029778312661924922,0.005498101296783287
7.01,0.1652554347853148,-0.2828376831050575,0.1504554290751652,-0.0027704496267223918,0.003565755517065972,-0.012529084717214327
7.02,0.17730213944521195,-0.2804420279371987,0.10775825470878662,0.0021597928933283247,0.00410819413794683,-0.0009997629969749028
7.03,0.17850622691800702,-0.30195514101298965,0.1139146947697461,-0.003003225125152134,0.01463179174992094,0.008033130225945383
7.04,0.18012686148113008,-0.2760211356029664,0.11673527779231067,-0.020924847478366287,0.058810914023846576,-0.0030450485784378548
7.05,0.1661985902141766,-0.27802835949584476,0.09608353162633873,-0.010316333636682388,0.05142104606152337,-0.006876470983920349
7.06,0.16585864649596363,-0.27866395240752667,-0.1250786977073828,0.001530152343906392,0.04726142404447201,0.004192785538998293
7.07,0.1751608796203742,-0.2937420374192947,0.12763845188196238,-0.0001238709726285414,0.022260964669096578,-0.01675600330433265
7.08,0.19165602580680008,-0.2981070775103158,0.11889768230914162,-0.003519319443645551,0.004764495765422906,-0.004909658176564844
7.09,0.15598353341048354,-0.28545213195981345,0.11999638576890007,0.012240032288563985,0.030403700168070594,0.010091319459518924
7.1,0.17961210443404502,-0.27667619411854594,0.07795358977265279,0.030823601793010205,0.007675610216857821,-0.005004631054111654
7.11,0.1552295755587416,-0.26776894531054635,0.10354573121963571,0.02119756026958541,-0.0021372736452213875,-0.018015294628950948
7.12,0.14633758361949514,-0.2891220353990849,0.12451790994316762,0.008942618936763048,0.023654339813953356,-0.016682931819094485
7.13,0.12608220562833408,-0.2644927080457424,-0.5328034325178582,0.00541184868609525,0.013703118433917787,-0.004457351219885969
7.14,0.15142141791040772,-0.2811816133675591,0.11802550101664377,0.02678407083848073,0.01460969002642955,0.004955956431138778
7.15,0.13231971899469777,-0.30274594605870897,0.11437058052363948,0.009939873855132638,0.022357110915076507,-0.014703644200881957
7.16,0.13588434258732382,-0.2896659709585682,0.13056645934567365,0.0015853065011432726,0.005211210224113931,0.01354513297457116
7.17,0.14968910692626147,-0.30751395206145166,0.08452293247488354,0.01579547933587896,0.005182121679301208,-0.006286555617451867
7.18,0.15595013375059408,-0.29454886243182615,0.09581150808597576,0.020399429076255193,0.0023710663434199104,-0.01775512598921201
7.19,0.14720326204046313,-0.3140212623210076,0.08621837698524597,0.004076325623676265,0.017126028403234368,-0.002111891637359551
7.2,0.14755989108635312,-0.30339678613916515,-0.09619582392952447,0.017075814030657093,0.01244960353705474,-0.01981414074194969
7.21,0.13381776607261442,-0.2975648019314151,0.11126372440024344,0.013317641583432455,0.0015766407026093967,0.0065173496805875485
7.22,0.15283985350230614,-0.3387726442313864,1.0893423812710084,0.0199195883732604,-0.00021642189125638668,-0.015956204182999402
7.23,0.12912056395988017,-0.30716987256249106,0.03094156155884202,0.00743175974383289,0.002173138148678379,-0.0014996081495883017
7.24,0.1494283304286909,-0.30467308994020725,0.039047622646098276,0.009772320267375671,0.009797856205626542,-0.0029662630771036215
7.25,0.14121081671965827,-0.3102815155184846,0.04999329866445838,0.0053486734272508284,0.008231791438615646,-0.010403778235922204
7.26,0.14295039439822416,-0.29875691759114814,0.033809400194370405,0.01297799532270986,0.008832444340861022,-0.0034479354772428725
7.27,0.14905583612736917,-0.3099849532889786,0.03578920618847494,0.013759812703273137,-0.008621193193964979,-0.003592232985569203
7.28,0.14617038355754977,-0.3014289147904462,0.02403804182240904,0.014045291699416061,0.009352996933256003,-0.0035737135215066114
7.29,0.1358325100030439,-0.3121269068528063,0.045409088801330225,0.016214117552987913,0.018646585368526276,-0.009592220729865148
7.3,0.14597994366866768,-0.3130371525539575,0.02807935202000847,0.018304232693773667,0.006932914621837542,0.0038977753265928413
7.31,0.14230539792945898,-0.3249100760640254,0.033140884841679874,-0.004858689772310035,-0.012103103366169326,-0.004217439038211061
7.32,0.11819136061831803,-0.3017478710663891,-0.41239377548580375,0.03462622978520347,0.013802130143829666,6.431250872121594e-05
7.33,0.13234993498461387,-0.3141100355201309,0.052675487692889364,0.004103689158867479,0.016578060387209378,-0.005916677649325415
7.34,0.13162343877623048,-0.32907349011873466,0.06831164688566224,0.006343509713530083,0.004067012556247418,0.006209372387426596
7.35,0.12344975796001065,-0.32637291742912433,0.05559996200305397,0.005722747553332138,0.015926254339897982,0.010827491912898606
7.36,0.12904727250663353,-0.33561862850761087,0.04229012581851302,0.0005855710717310289,-0.0012898340872867055,0.013722790933063443
7.37,0.12806391526269253,-0.3236018795962315,0.05455501611501605,0.009086957336260155,-0.0026799757658144993,-0.004917350647723728
7.38,0.13744643028175058,-0.3093435540875411,0.043512988471732586,0.010252666891700847,-0.0160273692824818,0.004403837322668304
7.39,0.14478829191749595,-0.3409133059215435,0.04790534149160869,0.014380650855314984,0.00037827375087138573,-0.005066786537015637
7.4,0.11937582698993184,-0.31897274229709677,0.026332066175615773,-0.0011821250306631526,0.011145045713838453,0.012248730548757419
7.41,0.13276386429210424,-0.3263531683936241,0.025122511395176246,0.014403194259046426,0.004094762051004751,-0.005717621158173633
7.42,0.12611355508767186,-0.3271008884439051,0.030920931463539147,0.008211015425352622,-0.01787917940926435,-0.009339389608856122
7.43,0.12615408286029886,-0.321259181880221,0.03333374521295114,0.012787298531952908,-0.001093754474395417,0.00962625752347451
7.44,0.13929793622281256,-0.3257299440219257,0.008585012827588803,-0.008977376009217082,0.017184096127379277,0.004267522127610432
7.45,0.14582411775754026,-0.34040134317852044,0.02734015713322412,0.023570597185921367,0.009139259733961326,-0.00699071816476611
7.46,0.1398677166245676,-0.33339703123561193,0.011970069041614656,0.013917327402722859,-0.0034136070890291143,-0.010579604540513207
7.47,0.13395884379547765,-0.35313742723940517,0.7005135551967443,0.005533015819231077,-0.009128892022229645,0.01857616852232363
7.48,0.12281420043698654,-0.3191308225933839,-0.029385058878249333,-0.005679951279384417,-0.01392910763806578,-0.01697414964625627
7.49,0.12908577687884942,-0.32970949228431823,-0.017085516101842217,0.012403044631998629,0.024525219102649317,-0.014181813364873782
7.5,0.13814343617052888,-0.3383140209930502,0.7903805999307179,0.002083164039175767,0.01558638220726664,-0.00196013492038806
7.51,0.1378746557079921,-0.3368498067573258,0.40784715548031736,-0.011852785908856498,-9.271122088998717e-05,-0.006401863170087339
7.52,0.13288311464559788,-0.3471464162238077,-0.05758131643038484,-0.001761364344143017,-0.006407355998178656,-0.000659033749971913
7.53,0.12190319974053322,-0.33618434454381985,-0.06317458111988326,-0.0038098397716986136,0.0029470261418693,-0.008778302729065187
7.54,0.11865610053332223,-0.33259757373600274,-0.07824754682171797,-0.012733327290677943,0.018965298680400478,-0.0028342009459039028
7.55,0.1421779867705806,-0.31869964773412224,-0.058461043204218466,-0.02557546444625971,0.00725146070708913,0.0008717702079279943
7.56,0.12290575048609348,-0.32714425474349995,-0.04590447116511634,0.003204065226959738,-0.02021074447589279,0.01756302877027069
7.57,0.13394314825634512,-0.345449480819766,0.2094959018455312,-0.00477631565560204,-0.0032968534596484207,-0.005444541918672208
7.58,0.1390667796487493,-0.3700987937543731,0.8423011442498566,0.0025534306881764522,0.015155965580682692,0.01216394310292731
7.59,0.14115307165262928,-0.32249917047496834,-0.10121322104073524,-0.0062373742538231105,-0.007586463757297823,-0.012749328979731411
7.6,0.11860750457163251,-0.3266559822235881,-0.10082170761448626,0.009709493410025555,0.005224422538886194,0.0004438821788851086
7.61,0.12284277257081283,-0.32762141830813984,0.2805502639691233,0.009865258193609373,-0.01762843481275734,0.010626622145687962
7.62,0.13061585477624268,-0.32285033482530723,-0.11379100877443983,-0.0017239152433943456,-0.004767587753724942,0.006078911810056453
7.63,0.11386992516498265,-0.33305129218928475,0.39924280504324633,0.004086358827325273,-0.010218988532431403,0.0020172617460016136
7.64,0.14705016277626476,-0.33941035177865214,-0.10444323805564112,-0.016674784806082577,0.012623451441291435,0.00426113076439301
7.65,0.11535416071148175,-0.30292217442896197,-0.11937825564579362,0.009553024415617582,-0.002722236424431924,-0.0057710935262670045
7.66,0.11940167361617722,-0.3170782987280769,-0.09780773457613268,5.296845439409226e-05,-0.013987917395074729,0.025343319401777663
7.67,0.12079946353971452,-0.3228888953717932,-0.01284684919262416,0.0065070201331311524,-0.019796562119406995,0.008615006880229422
7.68,0.11344398670372967,-0.32219537140264576,-0.09982460568116268,0.007280314156055337,-0.016569712251096422,0.006391225018613824
7.69,0.13712780872110095,-0.3179623324143409,-0.09026558156800894,-0.015702507972639744,0.004782362528120933,-0.024039406750691564
7.7,0.12810945483759753,-0.3127429873728,-0.10751361868337103,0.0022578751542430735,0.01017628824259741,-0.03153441808907313
7.71,0.13164537304255294,-0.3390682462554319,-0.0911702012629861,-0.01112740961482942,-0.006846748103701233,-0.01944960991757925
7.72,0.13918718100553015,-0.33512704298083906,0.555777899585935,0.004239503191243674,-0.01518386948878363,0.011622036839383384
7.73,0.11954853435129897,-0.32544823201323525,-0.13001385863597092,-0.006513536718505087,-0.018385331100701584,-0.008511920745849434
7.74,0.15483835265736864,-0.3212401152799501,0.5181257809191148,-0.008953352317450682,-0.00276618391717211,-0.000996091635164781
7.75,0.13694146868757423,-0.3034918565795141,-0.15032773909451969,-0.001056628789948339,-0.005373531535783742,-0.006261930876617415
7.76,0.134622369890679,-0.3110886997758849,-0.12200608446310762,0.007533999058110445,-0.025909746374614094,-0.030066154190250452
7.77,0.13722576509449758,-0.32009587876491463,-0.13147066762629192,-0.006784925844354756,-0.016510122277009577,-0.008705670972184481
7.78,0.119816473125371,-0.2759771964401673,-1.0787443297815251,-0.001107770300357457,-0.0009685485764017663,-0.012264024248983301
7.79,0.15111074444910952,-0.29686820485806587,-0.0665495769328607,-0.01126194717080188,-0.0036002883462032216,-0.013023140410964256
7.8,0.1346469501662219,-0.31179675192435735,-0.08537136161623332,-0.02647935266240851,-0.0012130529209874626,-0.00889926462312585
7.81,0.13731723242548927,-0.3173816365833112,-0.06592110870331314,0.0035145510487575096,0.0026007163557100494,0.002399660737088718
7.82,0.14197392743337345,-0.2998881269520115,-0.09509021536780424,-0.01597576519940024,-0.005764833219808066,0.003887969372194315
7.83,0.13197597004430434,-0.3015174757231388,-0.0656576313181187,-0.0024186778240923657,0.016319396014382724,-0.010665855022624866
7.84,0.15252388384417706,-0.3180695476128998,-0.10444904590991594,-0.008271644149922293,0.004809937370270459,0.0056856387147019224
7.85,0.14328885070260344,-0.30761271252397066,-0.07990354976533995,-0.027214868293814493,0.008095477828925722,-0.001821567472277508
7.86,0.1380060159455347,-0.3178393593256794,-0.08800401358014841,-0.0006645348877475175,-0.004206637176263506,0.01763527332935966
7.87,0.15427669365252747,-0.3034990011762341,-0.07749021186701736,-0.016676549743306714,-0.01656849583045449,0.005096097774085398
7.88,0.16438907327936947,-0.29367200759082246,-0.06907290533418949,-0.01774982338881611,-0.00850787221303717,-0.0032961257641863054
7.89,0.1447876304337034,-0.302421736255232,-0.09083052688486698,-0.017454433672199864,0.01215205844495728,0.005621913899318124
7.9,0.14667697616339326,-0.29959208478578314,0.10322492150380698,0.00878931560880985,0.01647931614474032,0.01509894719245999
7.91,0.15509684234689367,-0.31032635569766936,-0.09492317420554497,0.015535243408598366,0.00575550983959291,0.0019182558386825889
7.92,0.1243960902373638,-0.28342899494064006,-1.0569247709777625,-0.0011402794523492042,0.0163682733955329,0.01991763391828893
7.93,0.1459602004229823,-0.31088309634964884,-0.023679011980763925,-0.0072080145005498295,0.0024161838794679157,-0.004162290684399269
7.94,0.13093741329650388,-0.3098651907298485,-0.05221774029660574,-0.029274655807495796,0.017530173839220523,0.020909135575319062
7.95,0.1288157164884079,-0.28492947263397483,-0.04289838250636686,-0.01749384561685829,0.017343002371194,-0.010479119678556026
7.96,0.13307136089813865,-0.30761681928974044,-0.084103723732376,-0.014604425725585807,0.0069097560776304415,0.01532645108596107
7.97,0.12322467172220422,-0.288270786430581,-0.7722260831804841,-0.0035441778761308813,-0.0026269140727027017,-0.000981838495116769
7.98,0.14790050248821335,-0.31691883860832964,-0.007922446446349044,-0.01891483520551394,0.012432287557995848,0.006777709509357166
7.99,0.13094773559741446,-0.30305119581048057,-0.024551229807112124,0.0029793109674206616,0.014185972753702657,0.005747149859927453
8.0,0.1276005055741053,-0.312765701921265,-0.01842364885622355,-0.00467187159092198,0.015274565587631645,0.003986914259540134
8.01,0.14192739441662655,-0.3007515527515826,-0.026733018488820627,-0.0024546519319803986,0.002204419743927948,0.0032326698717424717
8.02,0.1427080242520411,-0.3063073580657333,-0.016297889104270172,0.00047057416418781837,-0.002637195941543876,-0.0029911211092301525
8.03,0.12428642530629973,-0.2935749902032619,-0.03179637695732042,0.002035344943499193,0.009797190792963284,-0.00046435229556511266
8.04,0.11706749398884228,-0.30711501248713247,-0.04053614867404054,0.006635106413226372,0.021663691894900607,0.010976379674246289
8.05,0.13400551428926097,-0.2778123615091322,-0.031085903890665935,0.002574429021334969,0.03946788802253984,0.003230415711459689
8.06,0.13326972939046708,-0.3080039645980988,-0.029795448168278112,0.003957875960767669,0.01886602091683886,0.007045960755873444
8.07,0.1193768425074719,-0.2966846391774884,-0.02889604468105625,0.01835038647995021,0.011475664287314266,-0.0019128884930323764
8.08,0.13081038069442702,-0.29040816201720526,-0.03405197333877563,-0.012283680389367333,0.008906435831154502,0.019048751171387115
8.09,0.11561680535595034,-0.2976698691582057,-0.02416908182366314,-0.008376531466901337,0.01648631487064218,0.023351883909665715
8.1,0.09386969286205968,-0.2607351575484587,-0.9096671381665837,0.015787373226778954,0.017063400396242764,-0.008619503805237827
8.11,0.12287547208456737,-0.28123793150719967,-0.09020363340249302,-0.009367877727877645,0.021162335946741245,0.016075139423228746
8.12,0.12017601797662458,-0.3317973967310363,1.042337215713586,0.0004930230715400589,0.009834887815317547,0.007896687543968692
8.13,0.1360278387999251,-0.287477480826608,0.19551240789521776,-0.0075184284628947605,0.014237036982869291,5.742291364526676e-05
8.14,0.09915342426294405,-0.3052039899403115,-0.06801669837142828,-0.0015405765161140015,0.0316296433125656,-0.003116672706997145
8.15,0.11475935316120217,-0.3041523732565638,-0.036785145672009745,-0.005675964671177066,0.023855740327886586,0.012582379189891864
8.16,0.0991524431539332,-0.28609114975008604,-0.04766399054866424,-0.020682625923209276,0.001804694472770368,0.000181961890941807
8.17,0.11315174623556756,-0.2785138402297417,-0.0426936313399285,-0.02351506965281722,0.0031576664973543313,-0.009129907517556077
8.18,0.10828045542857985,-0.3053718491863621,-0.051882774683933736,-0.006136255989110721,0.01544273208931719,-0.0011867021399804079
8.19,0.1057922729535895,-0.3233780430000442,0.5865933866153268,-0.007533488294821545,0.023866771613787693,0.008949193737511945
8.2,0.09273277919778157,-0.3023753868419093,-0.0763848311501355,-0.0028477702365750533,0.009548855751928528,-0.0025895950926100872
8.21,0.11078056501523663,-0.2999057413704149,-0.07945938593742505,-0.0025724690901980833,-0.01325751303450152,0.019473241916445207
8.22,0.09100861791402667,-0.2863752169181918,-0.08328186640193432,-0.0064752260917801735,0.004664603445715725,0.00440715272906885
8.23,0.08436588330177168,-0.29061693994067317,0.0353512375369289,-0.011526444880806366,0.019946617683623317,0.015941744333977416
8.24,0.09529682179678775,-0.28260346709692274,-0.0712031973675646,-0.008089382301804827,0.01077208521455575,-0.0015856707410567897
8.25,0.10162967618978845,-0.2941284061452551,-0.07324192312993061,0.002513935733867463,0.007844283599115362,0.0028175163199516337
8.26,0.09251425783078479,-0.29791992185987826,-0.05566023596404842,-0.012231665191229136,-0.003356908096680456,4.499428525737417e-05
8.27,0.10398198644299404,-0.2947986981196732,-0.046616334614379557,-0.004709036920009876,0.009378926784784676,0.0038357730611038865
8.28,0.10015706353769065,-0.2896909632287911,-0.051785836240796766,-0.00043072186619096857,0.015303288651752742,-0.007540634311128901
8.29,0.08478537015479189,-0.2970159991083143,-0.04638735145438413,0.0002244698370194681,0.02230483987222399,-0.007675708353334908
8.3,0.07984865681522381,-0.28349142693560186,-0.03874904488806933,-0.0011471419127511823,0.0334590606381292,-0.005222610348312933
8.31,0.10038689523904869,-0.28839402242381074,-0.056764625468083835,0.008484248575099733,0.017465009027781687,-0.008535096439144395
8.32,0.07732143914612526,-0.2850031213504709,-0.04928200946333588,0.0014031811584432753,0.005853249114934748,-0.004526666407262438
8.33,0.08602563113148134,-0.2797859576673269,-0.039361874438965265,0.013005895909217424,0.02434404766334115,0.021740581035779385
8.34,0.08250515915127035,-0.2860440385363865,-0.0427975838914216,0.02256695717661234,0.0207137855468934,-0.017561165573388465
8.35,0.0907089841547186,-0.27605658823707363,-0.023760536329017472,0.007480834766041696,0.0302928210153844,-0.004763608504599483
8.36,0.08329074179004468,-0.3008307028801996,-0.2647759124573083,0.011678175826768042,0.016970940936608017,0.0021469373749981296
8.37,0.07790378722011138,-0.281639290209681,-0.03951477675183426,-0.006867094718550638,0.00854543640603903,-0.01820466550466769
8.38,0.0727673860037773,-0.26538505479093244,-0.03617990915744827,0.006810606560224612,0.018834507633552787,-0.0108104592678315
8.39,0.0902866181174964,-0.3201590568309753,0.4586842354991279,0.003540458824407942,0.011591348633954248,-0.009401616959262865
8.4,0.06867107750933377,-0.29441473583472455,-0.044850444137302506,0.006043039102236223,0.0537964613121487,-0.006861183802529114
8.41,0.07236281966486588,-0.30927677852373436,-0.06950743353257667,-0.0011736944257796957,0.018029850158083106,-0.016927453927539256
8.42,0.06514472016050099,-0.3055889692781931,-0.06339823493299727,-0.005362517838925172,-0.007322688313071094,-0.009204122548635804
8.43,0.05632400798974837,-0.2930890314480866,-0.052046576471915504,0.0007071530654612539,0.01938883719047968,0.002585545320049294
8.44,0.06461542836709759,-0.3134019137598591,-0.05847690641051205,0.0016209806262024785,0.031605427678760484,-0.018894871442824552
8.45,0.08061970460551066,-0.2961009075069184,-0.06590804989298304,0.013868608133833418,0.02457603795531501,0.003693827328839136
8.46,0.06276675396489792,-0.2981609730821803,-0.04864483900457891,0.011826314368929801,0.009875446729554179,-0.02167053721495384
8.47,0.06912747714430678,-0.2821884436514299,-0.5189175765852965,0.000736062820998056,0.0050512686503276175,-0.007231009625715688
8.48,0.07452432481134173,-0.2865188556325106,-0.016820706151723902,-0.00042496940775421394,0.018482873884586987,0.011694359142159745
8.49,0.06153603821575897,-0.30634484576434684,-0.011305908223319968,0.018252806477955685,0.01923151571143869,-0.0014706043784907408
8.5,0.08962261309446562,-0.2892034325572393,-0.025829961342956356,-0.009777589075283713,0.020408516567726673,-0.01051474923094857
8.51,0.05683539813021062,-0.29494876925499247,-0.040677398398625025,0.010842712982539929,-0.008992806104081165,-0.00031024972212964977
8.52,0.06922538131668764,-0.28209540427157226,-0.572917660043592,0.017028132175784298,0.007815371745763276,0.0028456635443970305
8.53,0.04779400830329621,-0.3052995604180352,-0.003097334090497954,-0.008057577347947133,0.027239453967592343,0.01866048612218804
8.54,0.056318707774774025,-0.2971306026595727,0.006848168997635464,0.0022683592738243735,0.008036670025701121,0.0006242373992227023
8.55,0.059185345896786035,-0.3226574169039499,0.8546961159963042,-0.006710438932907592,0.01293760529932524,-0.0018200404288061895
8.56,0.05819385451510038,-0.30674377432457917,-0.04818866078205665,0.011911817538211683,0.012565567976209802,0.008499209671523681
8.57,0.05571304279406361,-0.2791955806430222,-0.04253690347658606,0.007209208226019647,-0.0034181754044917516,0.0025420805833299624
8.58,0.06921214826098868,-0.29967163614473064,-0.04432704426598368,0.016545253226150775,0.014257770319807128,0.010160962478440859
8.59,0.05002589015905969,-0.29083736039303665,-0.04794909798844506,0.023483394694789994,0.0067158260839279785,0.002285078726194368
8.6,0.05896504996713533,-0.3018366848519499,-0.04687159953709801,0.01684891574734482,0.02355593567566784,0.003770588796876592
8.61,0.03500148459457114,-0.3137524984812956,-0.03369701285101059,0.013416848970672269,0.008842724881780978,0.0011936993772929463
8.62,0.04091367641320634,-0.3216695002180324,-0.05336217149238749,0.00713528020037207,0.0030771680409413106,0.003961218637687901
8.63,0.036194291915298896,-0.30897944280663064,-0.052375581357712864,0.009173395042125733,0.009048095950990535,-0.013209545759222353
8.64,0.03649663761796403,-0.32557662526781295,-0.02570604508197831,0.008641865533214744,0.008836850425474095,0.001354060606038719
8.65,0.02399832399977239,-0.3146731685203173,-0.032892439561725696,0.007840109908985805,0.03667052889273921,-0.003898479340316961
8.66,0.041626719089692406,-0.328558222861602,-0.04218560396317647,0.0048760681318036365,0.0064810850865854724,5.314606775958658e-06
8.67,0.05258244962871236,-0.3135532875761785,-0.026855451357012616,0.01211028179195568,0.010385566416441087,0.0008876193719705781
8.68,0.031089992238181402,-0.3162575462319975,-0.02861379195895847,-0.0006026801922863392,0.019339149039031445,-0.01758868314736272
8.69,0.026974514471649252,-0.3126968605789146,-0.03537438999251773,-0.004631021286802698,0.019716213820653698,-0.017982643616931464
8.7,0.04492871299144763,-0.30776345887225454,-0.03302749015448215,0.01503005164341939,0.0244734085562082,-0.009950115731242711
8.71,0.040251025872914487,-0.30095563663871666,-0.022840220172740715,0.004781143895524546,0.0023350925317023284,-0.0006494752565649018
8.72,0.03584064243562265,-0.3203765679219939,0.31353077442515626,0.009505413119679007,0.0049015345551818666,0.0009797118572592396
8.73,0.03420175973551129,-0.32377614255841,-0.04110056726654642,0.0033898703492120366,0.0039285743662469935,0.0010703270257145497
8.74,0.01901742758278705,-0.29887685391704333,-0.0632900736046024,0.015411308344233593,0.03146227707259562,0.01272633174913752
8.75,0.03432262120906706,-0.3381026610973641,-0.03618664087252739,0.011380637007808721,0.02744855152087524,0.00593717891775166
8.76,0.04488670901595,-0.27993439615357496,-0.7418986610246642,0.03287546198500008,0.0009903541579611066,-0.0040076388180582895
8.77,0.02196532436000992,-0.3352898672679543,-0.006473422431678485,0.02870115661380961,0.037872100747501525,0.018574323658665494
8.78,0.011649785069081906,-0.3369378787158974,-0.01956309933332275,0.03719071478977265,0.008535863928401236,-0.005930391204580408
8.79,0.011546181439066864,-0.28733665132652525,-1.2329651820779843,0.027903780652605088,0.009679817659585374,-0.005009394005341405
8.8,0.01398980007769695,-0.3258998151159765,-0.23141255539223543,0.024702164366015043,0.024593032270296834,-0.006989036684983596
8.81,0.029474615372660842,-0.3208878911591727,-0.10239969482149451,0.010051350310007123,0.017295206884191373,0.001735527604432254
8.82,0.011134506877251718,-0.3743373085116634,0.6365926594515935,-0.008855158175007209,0.013496807519315798,-0.011936993638057666
8.83,0.013149668924480181,-0.34113861119928773,0.016345794912960013,0.009676109381843278,0.022098627813409655,-0.01130117993233016
8.84,0.012769564125747097,-0.3331413035310319,0.012280348628388728,0.012101658302196106,0.030660458758883548,0.007503937998568218
8.85,0.009845307043390029,-0.348000460291,-0.002644891033963502,-0.013813947536491343,0.031970883862683874,-0.005664836161047265
8.86,0.006404430022186153,-0.33724274010376787,0.00029337093655939193,-0.004520156405136423,0.011660414689214915,-0.02151256696864672
8.87,-0.0017771861558013042,-0.31858797238657127,-0.38151277979650716,-0.012176868289415416,0.0005045773600431697,0.0006101037410927296
8.88,-0.0014437639700096497,-0.3423013534959242,0.013169458953475117,-0.012809948628887236,0.005877664929802243,-0.019533956380361837
8.89,0.0016424076311573966,-0.3490632446469844,0.02662373352116411,0.010746611285891541,0.020545829894230365,-0.0033101114295550705
8.9,-0.007898617200551244,-0.3476767822697512,0.22539359951484525,0.009476128818643995,0.012405017369836797,-0.0013935479879515883
8.91,-0.0044147325366872105,-0.32613651082423073,0.02011962767129786,-0.008306945161414815,0.012641558001840802,-0.006327658291276178
8.92,0.005707403129841113,-0.34739324781679637,0.009187576155458474,-0.004959251744324648,0.01712689976231531,0.024246279955217127
8.93,-0.007203197680585599,-0.3282037826916503,0.014216573730779707,-0.004378771596926906,0.0032699449910018104,0.00784429759496542
8.94,-0.0011760684027809338,-0.3172474144359399,0.01229979048243076,0.008879731659028188,0.015139031573601178,-0.0022930868195232437
8.95,-0.00277697075178215,-0.3406194404120357,0.008877550131057073,-0.009895246441141058,0.029835103834006088,0.0076781142912079395
8.96,0.004210511382891162,-0.3189991849652428,-0.004470405186577174,-0.002279027491230565,0.006418940837444825,0.007489015003785772
8.97,-0.0052421338526874904,-0.3332515388395748,0.014954517116436188,-0.012837275306544507,0.0018769373252682702,-0.007040906798897007
8.98,-0.007685547530630998,-0.3314091954863379,0.023239662007854874,0.004327789307631211,0.006168386293138272,-0.009653570505237796
8.99,-0.0073280473909323775,-0.31908065159626225,0.019980010504200185,-0.00270055801629533,0.007029714095144404,-0.011682139582422651
9.0,-0.010813946748353603,-0.32969288857870577,0.0035249429768069197,-0.018014286054422853,0.003538430971934521,0.014965482740242935
9.01,-0.0065308257867153375,-0.32736175718817334,-0.0020169154028104336,-0.01729859313846056,0.015425488716240426,-0.03058523486682188
9.02,0.0021501951490223697,-0.3354201348680068,0.3439941718826397,-0.023451551840622836,0.0008918048639117587,-0.001371772480989332
9.03,-0.004637489235700781,-0.29813487265203464,-0.692138597260276,-0.004261507207419443,0.020514533798231517,0.000436109646851869
9.04,-0.017867695123179716,-0.32565838716814666,0.02522343931484627,0.016888422913539734,0.029892382223782883,0.002598120617037944
9.05,-0.001241465519597926,-0.3383174873781708,0.021830045149528327,-0.0016351823429590117,0.02100679914529079,0.026930015199386266
9.06,-0.026609397372717555,-0.30583973191018976,-0.2699463080217748,-0.0035912187351503206,-0.01281910370554817,0.0033904413807993913
9.07,-0.024027563522894813,-0.3059924445268927,-0.3048873406196654,-0.007659525109905117,0.003162177501602462,-0.005567465816605501
9.08,-0.023424415893615845,-0.35665618037416263,0.07404794273083828,-0.02702107704159834,0.0079162347229292,0.001194949938420327
9.09,-0.014782987983387483,-0.33759413132892185,0.038208936768400495,-0.006105491869374086,0.006653717037243955,0.012188078299058332
9.1,-0.009637701530314877,-0.3206070529182103,0.04769549356348357,-0.014023632911123789,0.00027289244379421346,0.009805797262640283
9.11,-0.009032588273203683,-0.3079719931588642,0.028174010707779328,0.0018517455592069586,-0.015840555195581585,-0.011038462501670855
9.12,-0.02785942232809211,-0.3273135561198448,0.05802477578172799,-0.011853389178793252,-0.009542151878533736,-0.0006854028151108953
9.13,-0.020300345944043636,-0.30340904352491893,-0.7181489578593958,-0.013473244252721017,-0.0077875220667430484,-0.004646296467562825
9.14,-0.02898945481592614,-0.3309648361896525,0.06493003652125359,-0.024373547146763493,-0.0019732453206141986,-0.003144167821731183
9.15,-0.017389809670172972,-0.3328068378417118,0.0683458602618626,-0.01552290623357324,0.023362298076466906,0.002564804100022324
9.16,-0.04222511934061527,-0.32937614282526245,0.04819158080772391,0.00022109731278453608,-0.0005213000409158251,-0.0004135413152857785
9.17,-0.031074021538067216,-0.3278005473185449,0.07600299120818328,0.0034071768476903515,-0.004127166627618045,0.007306841578800183
9.18,-0.021621556740207847,-0.3219861409960435,0.053213215523851776,-0.011095791785855302,-0.0025819194944529536,-0.008243900777892808
9.19,-0.004380985878021182,-0.337128770722703,0.05146431449500254,-0.014164082447192364,0.002342614756226439,0.015331362368537188
9.2,-0.017043986131282173,-0.3108456014501708,0.03243908079712809,0.01840452980228352,0.020082801584650138,0.019833923416470247
9.21,-0.03331007983470175,-0.3012323090755571,0.02507109025247273,0.00025583673533974977,0.017469745389202505,0.004971511503617176
9.22,-0.019366450428455466,-0.2784326294243515,-1.1932039973672925,0.0156727823121452,0.025866441658585176,0.002364970158271665
9.23,-0.042984625352842955,-0.30912073876544893,0.11757114108823517,-0.00943585165133778,0.015078903294725764,-0.00699417344522817
