timestamp, accel_x, accel_y, accel_z, gyro_x, gyro_y, gyro_z
0.01,0,0,0,0.009471673853256332,0.020864791469257817,-0.002364499594048651
0.02,0,0,0,0.006168442904660766,0.01054849866241034,0.0016232840794734608
0.03,0.007865411439254988,-0.01445590635359781,-0.007798971624145974,0.002023643331239799,-0.0015148988562027283,0.007662437371335906
0.04,-0.0012616725226910932,-0.010299738279428787,-0.0005515495692212381,-0.01718555397306871,0.01612271355912028,-0.007117517873188728
0.05,0.009151978814019735,-0.002105712587433124,-0.005380767442780606,0.0020964395677941124,0.0012127304597189937,-0.011528066111696357
0.06,0.0016412337122726807,-0.01615520276543448,-0.4305015914428956,5.608150295231644e-05,0.011768423499576807,-0.005570770952369049
0.07,-0.0005555427221416035,0.014494089822019057,0.07661062475966754,-0.018225378346228144,0.0007713477663114162,0.008622564354007505
0.08,-0.0038617738285173005,-0.0184782148973913,0.1113671858752869,-0.001990268650244733,0.01000721026362033,-0.00532723192434513
0.09,-0.012010193131587289,-0.010766372942621843,0.08634147098832048,-0.019979024584218685,-0.011330276859104491,0.007045437979071922
0.1,-0.0028388336577030815,-0.002879710327651437,0.09790615700204909,-0.0063531822985061345,0.008753186328115371,-0.01737783120246593
0.11,0.003961840395918203,0.006009672853669977,-0.08349754277271722,-0.009454639981280107,0.004388360760828506,0.0006687765040783737
0.12,0.004650191916820917,0.012726602058406521,0.7312182873559632,-0.02725346147638726,0.018431388425507133,0.007763416821055467
0.13,0.00022953995237930385,0.003062318865204942,0.1541922895384284,-0.029200400227408496,0.01092287647507163,0.014774001072405658
0.14,-0.0006408536256898656,0.008088855123316963,0.1312490231621513,-0.02495775559029928,-0.01492051443975487,-0.003391310913408676
0.15,-0.018883654227844757,0.007105095938702697,0.1151532348772886,-0.023426648470428857,0.00688223762290933,-0.006028002076112773
0.16,-0.006065147979800157,0.032183121569864,0.1199760075630417,-0.035243626076746436,0.005730489470960203,-0.00830116932878102
0.17,-0.0174870450478014,0.014310244327657729,0.23005738495048034,-0.019257251957794333,-0.014708009661139627,-0.0019679882679900914
0.18,-0.031304930546940626,0.00708454347386598,0.2072568591151227,-0.023531458072185825,0.01206328496947589,-0.010765791503559507
0.19,-0.008548981428549348,0.021762441937548834,0.06972201457759214,-0.032197408487053256,0.002572731581032028,0.01748595964078339
0.2,-0.004911589566620455,0.03139836498327676,0.17737274145335954,-0.033187998299398655,-0.011054819299629214,-0.005243908133579996
0.21,-0.013860884035666213,0.017549567018298802,0.14109980875550293,-0.04302655585200215,-0.0041644849243754134,0.02995354059764293
0.22,0.0008101467449941335,0.03795845397930103,0.25633259198134456,-0.04526159641820415,-0.009344624408912403,0.012649213166445652
0.23,0.0010443386181306046,0.031816746607280365,0.2201211587432164,-0.02312005771924447,0.005156546955174647,0.007772063604713682
0.24,-0.015166023387809115,0.041944958750667255,0.21631117356926993,-0.03784629674938694,0.0029292948907283945,0.02606511301296232
0.25,-0.013352369387862805,0.050181950725748735,0.1919018297593424,-0.0553608841520935,-0.0157576226296305,0.01911799081457264
0.26,-0.003327703504488912,0.040530370916235084,0.18360882227812403,-0.05515384090825654,0.008105251083244405,0.022017029658493805
0.27,-0.027599477061717996,0.02890250532091949,0.27863777243008236,-0.04010384590222291,-0.0029887263167328393,0.009494324608296686
0.28,-0.014274034074588954,0.05983082645482078,0.2638368888166487,-0.044979291925044074,0.01503904586834948,0.012701030272649603
0.29,0.0014456466166203044,0.057208777001631135,0.23320277329091596,-0.05582323201688829,0.0005766522072518316,2.7259608931855424e-05
0.3,-0.0037018544058772316,0.06313421506106913,0.21757676317623853,-0.035703307069524196,-0.01718328295188997,-0.005327376866325895
0.31,-0.004937006660183157,0.07755714587209678,0.21602733318816097,-0.06588232639358152,-0.002653415643618338,0.0029509373862936154
0.32,-0.012277361371947744,0.05704189539855229,-0.6703493238253718,-0.06664404620386442,-0.0163741899555857,0.01362425792363698
0.33,-0.004374803831551113,0.07109478146677252,0.34394554701139113,-0.049952414575516746,-0.019521908267477565,0.009513215365277827
0.34,0.009592469815122368,0.07253537298060321,0.006259423225802862,-0.06397784855133735,-0.003890901424245992,-0.008424837893691663
0.35,-0.0057403555768942155,0.08427703657244252,0.27888550277374513,-0.06179612266151915,-0.006099075265950387,0.030290770919568267
0.36,0.0033704535664848753,0.09187697278731402,0.2676755875677272,-0.07382461500887613,-0.016144242570346773,0.0028775793692826443
0.37,-0.007561419774539118,0.08321886852035196,0.36900170417787914,-0.08892013898268246,-0.0012916193134183429,-0.0018963244707790134
0.38,0.012455793259482466,0.10987394888021997,0.3453465809739612,-0.07274592647843853,0.016723308092077872,0.017869425974881017
0.39,0.00930333911817048,0.10809758749996015,0.30256677336066135,-0.06538162310968242,0.021371253199155893,0.0008257440160561436
0.4,-0.014155104232523415,0.12797901543641854,0.7777873428156584,-0.0763741559551456,0.005520532492447811,-0.0027749613692701694
0.41,0.027225642152928595,0.13382886883461645,0.23819878974433314,-0.07387694522350835,-0.006594018806517032,0.005534943071773764
0.42,-0.005090219689534508,0.12683183853115096,0.360730655950256,-0.08280400792031264,0.000972145304045125,-0.00062336607924264
0.43,0.01634116896262696,0.14640875628518787,0.32423357478266757,-0.09360226952752582,0.012385243287840008,-0.013814861981980326
0.44,0.000565565450677632,0.13951514079363156,0.31429251506848876,-0.08268408342060836,0.027059965647032762,-0.00790154959303087
0.45,-0.023634486942535192,0.1551400938632576,-0.839946940780582,-0.062297131324518605,0.008957511225887043,0.004367666557855344
0.46,0.00704577325793191,0.15908045662660375,-0.30155766036670295,-0.07795953260936424,0.0009293991229946116,-0.0016614403702980575
0.47,-0.008106801332393014,0.1896549799934284,0.43823320292547474,-0.056820217389196376,-0.011865066250998648,0.005758262183508671
0.48,-0.01859978925811888,0.1854580136964052,0.400731462853086,-0.08317402756378056,0.0047303953342480685,-0.00840483647920946
0.49,-0.0070714670887149205,0.17871642010527142,0.4397009686762863,-0.050607120078350665,-0.0013794337365376158,-0.005973147550061251
0.5,0.00558811328131476,0.20449019084147463,0.3163378056003048,-0.07956293453166433,-0.015301411075291795,-0.0069924551069196145
0.51,0.004311781555491223,0.212973392866679,0.309935916058946,-0.06760613786125132,0.015769498936364895,-0.0025421341925115147
0.52,-0.02070750207644758,0.20811928672994642,0.40368500419978315,-0.06240080380077377,-0.0028929672068531654,0.0022588295026485243
0.53,-0.00664089309690927,0.22920925908848364,0.37743738128178855,-0.07218564221335362,-0.014182000060190101,0.001336081372210122
0.54,-0.006784992099207042,0.21625813836590196,0.3540117390425745,-0.07355253323220014,0.01557815344084782,-0.007319984409742417
0.55,-0.002804720884246925,0.23106454487674524,0.33542177690065345,-0.06036857824936925,0.005381106621417294,-0.019976846654953372
0.56,0.01324420793351494,0.22235733720800693,0.013027473269144647,-0.06283025274305896,0.0007068045517511648,-0.0003883866795522978
0.57,-0.0167440213596848,0.25534568689334924,0.90558806265173,-0.07229295549438675,-0.004042761158819809,-0.026214898698275802
0.58,-0.00984991746413323,0.25912621211782894,0.3694246159124707,-0.0563593281018023,0.011946120129089008,-0.014435754690146515
0.59,-0.012692034824184826,0.27570226558391003,0.3591540751809607,-0.07935985948513241,0.01397401627495196,-0.010732174142333597
0.6,0.004041005359402312,0.2716947807966883,0.33329053414288295,-0.0829414164853999,-0.024521055246348667,-0.003988311463367214
0.61,-0.010742682870246644,0.26637010191343286,-0.08714264466599868,-0.053589690108747375,-0.016164571517802852,0.010049936142466132
0.62,-0.012544495002976178,0.27491106385856456,0.42188018710279124,-0.06968742240289953,0.002152118533119458,-0.011112779231132096
0.63,-0.012179246941171598,0.30517828692069415,1.0088331102392445,-0.07317625083524756,-0.00891847879198624,0.0008831116879279973
0.64,-0.014633416668193072,0.2995647998316722,0.33653077320937524,-0.06571843264652821,-0.01436747186744864,-0.013921512805507547
0.65,0.006245865868310944,0.313499432302863,0.3037714525741248,-0.06355417675659092,-0.0045763451234952564,0.0033793196054918537
0.66,0.010230101373325404,0.3014150939490701,0.28808573364070855,-0.0787867070695161,0.01622887972017532,0.005138963649276291
0.67,-0.018151542633527307,0.32464975078812175,0.39896642756374323,-0.07630253138670802,-0.00243061618175248,0.0109305014617041
0.68,0.0038240911856498843,0.33323485724466645,0.6010216642712518,-0.06443614892815788,-0.008610035215122698,-0.017469820819496322
0.69,-0.019374037222966687,0.335956600690303,0.3092135057532709,-0.05639026997437685,-0.005490455829914355,0.00255274169161116
0.7,0.0021796299639642424,0.3199839535624556,0.28280993563171514,-0.05356001794655004,-0.0026841252398019898,0.00018100923167751765
0.71,-0.009662952828712384,0.3355618293297603,0.2786947852395488,-0.06025296109891272,-0.01968630021073371,-0.003103244575278893
0.72,0.013470251658561219,0.3649600116706589,0.3923820359191312,-0.06314030464729883,-0.013537766706273302,-0.003598211535638643
0.73,-0.019820574078607076,0.3585506125692029,0.3351935550029746,-0.060925223917592135,-0.022034371635397464,0.0017604133680956344
0.74,-0.019112518665736333,0.3639055880191334,0.32781698132723175,-0.04438735493871511,-0.015529770067891212,0.006951148566788176
0.75,0.0024418178861206007,0.37399349090308354,0.29839248501249327,-0.06070927133582244,0.008798685568910168,-0.008905997695941869
0.76,0.006238456874296845,0.3706658041151303,0.2875673019819004,-0.0641935704028394,-0.0017782529797039847,0.007403941211598875
0.77,-0.010428176355578108,0.3960177077708714,0.34844515410819,-0.07234706145414806,-0.0014380134530059662,-0.016118497487573102
0.78,-0.010004840397423383,0.3918369637948753,0.32838506857397004,-0.06046959098488421,-0.009484416499529733,-0.00036748500917147816
0.79,0.008955548258879127,0.36328277208770027,-0.45397826530503066,-0.047007877958649885,-0.011333515563603472,0.019409248392118536
0.8,-0.01361480815543099,0.40423068486825336,0.3196726903536039,-0.03732633281495218,-0.0116011830148435,-0.014667619481730476
0.81,0.0079151959850654,0.4198374013233491,0.3197414191935838,-0.06049018000681352,-0.008964364643503628,-0.01684009118933881
0.82,0.009169137263697263,0.41827978685365746,0.35666462264892546,-0.040564159871643544,0.0001725542817598534,-0.006906897285678393
0.83,0.020916503809437763,0.4309100806517503,0.3537941153554316,-0.050836393462457406,-0.008393959953513132,0.0006265248625140344
0.84,0.024650696661260234,0.4288255535061086,0.33197123234521075,-0.04310236117459427,-0.012706560633175084,-0.01877732143007962
0.85,0.019264079220124773,0.412241743356602,0.29813067503433766,-0.045054688770265514,-0.006399202786185334,-0.006449915600061
0.86,-0.001578361411963979,0.4408267714219534,0.2911638359772534,-0.05550533745518348,-0.01794808376459609,-0.0003469862629314679
0.87,-0.005913965242746568,0.44835376315140885,0.37841743158082247,-0.05889573211562546,-0.011229245638816134,-0.0035232329282998453
0.88,-0.0040779954649281,0.44275597218701007,0.346227726408174,-0.05106907514182267,-0.016163449451019562,-0.00636199750859722
0.89,-0.0008335441099155284,0.4280904831487968,0.32244115962085634,-0.03162983256590007,-0.019615125583178628,-0.007110273250146853
0.9,0.017963376244394758,0.4419576970439555,0.2915718984113098,-0.05987410460936386,-0.015494056182751233,0.006217964441440117
0.91,0.01386051475251579,0.4546252676337986,0.2593639207333263,-0.053045617836295224,-0.019429794180803612,0.004904877321930391
0.92,0.0022396701721081325,0.4534991977212835,0.3479239780329207,-0.05269302287496323,-0.012712918281006663,0.024890282990290922
0.93,0.014161106012350214,0.4531453664468154,0.3271939257845344,-0.04286528142567305,-0.012161830773331234,-0.013580023833071771
0.94,0.013569988097538071,0.4670286392897503,0.2985431081292684,-0.023191464259539576,-0.02517266804902136,0.0033704219845436087
0.95,0.02235838093074329,0.48146453202117173,0.2764419031833136,-0.03904521943946682,-0.025940951679441625,0.004219847120598804
0.96,0.013520702096589133,0.49285211180375427,0.26613605117824557,-0.056873022018496096,-0.0155918242324875,0.0026465054488328025
0.97,0.017833798663570356,0.4928206783284112,0.3689811421866748,-0.042866335861215014,-0.015286748117242045,-0.017732016212784963
0.98,0.017594782303111768,0.48707532430437056,0.3171274659791267,-0.07168023143622869,-0.028161529373125153,-0.0014266747889272748
0.99,0.036712918808288725,0.5099793470454868,0.2939404199955934,-0.0295678043631656,-0.006652810727326987,0.0032341579490090056
1.0,0.041135827735742134,0.4941570560269849,0.26245050934787223,-0.05737109313672034,-0.011573563982267967,0.01447035361384589
1.01,0.028238425656985575,0.5116383160330963,0.25261827592454644,-0.052361064231680306,-0.02412203076633272,-0.024648564939752968
1.02,0.036558281078174416,0.5041084800993928,0.35348411274850516,-0.04720482126337412,-0.015367830624284184,-0.0073611300542950515
1.03,0.030928578896933755,0.5280984093882176,0.3101597506319048,-0.056440889722173516,-0.015438365204983213,-0.009114002807138227
1.04,0.053092712955970955,0.5083944358412529,0.2635611375778473,-0.03656652823468578,-0.02871933551158115,-0.0004629675359788365
1.05,0.029897949819996113,0.5046234612954242,0.25368371164925957,-0.030852474922328427,-0.015378173024150068,-0.011673274624416505
1.06,0.04157420254748231,0.526333428135319,0.2325122170196229,-0.0556249091683823,-0.012214086784344692,0.010748127458219821
1.07,0.04548083181410121,0.5341677368503417,0.3176799129223734,-0.04162662097791884,-0.006885060868865287,0.00391072231879592
1.08,0.04218238482220511,0.5266688830286028,0.47519988952899095,-0.02740439844272245,-0.024718547770240726,-0.006418131901571909
1.09,0.05511330749301427,0.5443785946424761,0.2759745403094985,-0.017515360086888736,-0.022432615163553278,0.007971735517974001
1.1,0.037384027073815086,0.5301445600421325,0.23080404066705076,-0.010155296042293881,-0.0357415733122152,-0.0037084271569181567
1.11,0.05140856105759106,0.552234447667938,0.22083517600155306,-0.0343323633316079,-0.016053048728891725,0.007915425739932858
1.12,0.048594500998582674,0.5277715584011461,-0.10882533427023147,-0.03251440846455701,-0.0126452764315741,-0.014105932555417974
1.13,0.0600567017570679,0.5402246462402992,0.28696678856676755,-0.027005581105854257,-0.029724691528918535,0.012725583014815401
1.14,0.03952812034260697,0.551945581000692,0.25012988208992903,-0.019968955533474126,-0.0015129513130030109,-0.004916217302795296
1.15,0.06072398633082859,0.5629649706770861,0.22866551616441225,-0.02315680732016189,-0.02464243983532282,0.010560063576007892
1.16,0.06675666263644137,0.5440865056035853,0.19955581474443412,-0.0380671788846283,-0.044051560814510234,-0.010567995996453715
1.17,0.06127165615549424,0.5753687471332641,0.3192357672603909,-0.03324919386663802,-0.017658504713600316,-0.01206677391024981
1.18,0.09312795991960315,0.5794513330573469,0.678774674123345,0.0031413418931210343,-0.016634701287103183,-0.011820687217902559
1.19,0.07747345538108484,0.5493604114080032,0.19295674076094443,-0.018568981670012936,-0.010819607487634926,0.002922977604718461
1.2,0.06318651191686063,0.5501095309159965,0.1997479859768161,-0.020096712962758907,-0.016363677678918873,0.006014116757352042
1.21,0.07136295853163828,0.5568924234472601,0.18112010153494826,-0.02757866877691972,-0.022569880250046304,-0.005934214361440914
1.22,0.08430419280106084,0.5813707966550543,0.28451182909859507,-0.018253471532109457,-0.020148047013425138,-0.006600422505715924
1.23,0.06725254093217323,0.5790120414223873,0.24972382929658363,-0.004146964911315856,-0.02957618938991284,0.01617686765001487
1.24,0.07484824211663857,0.5573495543245489,0.208674663880534,-0.011040808273258224,-0.01721273855272313,-0.015397036116460337
1.25,0.09990798350662664,0.643852369280477,1.1627347394606127,-0.028768160628624383,-0.0212221820406312,-0.0024532569430437247
1.26,0.0748810069243106,0.5722377456820158,0.12814347752762406,-0.031188835311700712,-0.0162626784398541,-0.010387252666014013
1.27,0.09234178084249846,0.5748763378913534,0.2278801371300255,0.0047957019244932,-0.01931117356216112,0.008830745774263057
1.28,0.10300135423607615,0.5775345725809066,0.19500356213383646,-0.011156768427528455,-0.020338846424927164,0.006269648258997347
1.29,0.08494124961561628,0.5712825600623274,0.16049362196945888,-0.007351986716329733,-0.021511942737190832,-0.010404093706860632
1.3,0.08662393289493207,0.5722137486289456,0.13017643258827755,0.005232417539582243,-0.0336220514293258,0.006542195554176866
1.31,0.09732742591813565,0.5794659686246301,0.11089704362137419,-0.00768725365286803,-0.018961562089815216,0.013984923751377035
1.32,0.09694728209883409,0.6147843393732161,0.7362123906094393,-0.029485964933134635,-0.011425542769450375,0.0013466100824084141
1.33,0.084159748209515,0.5873707248219475,0.17373189330769906,0.008979096485477164,-0.004439264399960806,0.0052473835506639255
1.34,0.09846471669715123,0.5850974237425508,0.1488466681773468,-0.013129886135209934,-0.016138260745019156,-0.022754016993843496
1.35,0.0894664447782639,0.5824018125964397,0.13079032062119023,-0.0035387407111991216,-0.01758295662041441,-0.0019896965009611263
1.36,0.11253739213939129,0.5760678963960773,0.11256121267787429,-0.03226890221876394,-0.03207087402683551,0.0023738959795522947
1.37,0.10755406703599668,0.5849437337271421,0.20565857368264204,-0.0095480223017797,-0.015408418152127913,-0.0009502741036465286
1.38,0.10392952581197576,0.5722974220155157,-0.1294060483338092,0.002426493959840235,-0.010035773344942132,-0.012756504607393509
1.39,0.10249159057517243,0.609155429197285,0.1522816895132547,-0.015435239921911424,-0.019595512619299642,0.009498691634841867
1.4,0.10562963263016463,0.6012234440628829,0.1510015234812674,-0.011025982858796104,-0.003932690369070496,-0.010898368611371159
1.41,0.10261275655317818,0.5924128942130805,0.12137407060475719,-0.02109309407062125,-0.018305862528991062,0.007660107504119268
1.42,0.11344402780434987,0.5766421871530087,0.23163154849091314,-0.021099913706819705,-0.004058841375617576,-0.0110684208095502
1.43,0.11826920816686202,0.598828497875597,0.17841424654173865,-0.0194434720349348,-0.024386106660220164,0.004697327837106602
1.44,0.09459161411722311,0.5845971788100587,0.14126294667693495,-0.01366747044072245,-0.009331391536516104,0.0036092814293196673
1.45,0.11034544284689835,0.583709359113193,0.10882070703631239,-0.012453204185273476,-0.023909943528875217,-0.0071852739056179026
1.46,0.10636438103019549,0.5978271681372136,0.09527077774761554,-0.027344807509013296,-0.00450603996414729,-0.0032789574199049614
1.47,0.11973858797735454,0.5823186283171319,0.2109842509178592,-0.021300908841371497,-0.0003938738063353625,-0.012930446210110604
1.48,0.12240474491860379,0.6169699125556541,0.17482223122061646,-0.01101933226820128,-0.006635253171595321,-0.01108852233504276
1.49,0.11993699673929742,0.5902233034939114,0.13988719301204258,-0.014272999461661896,-0.016597412029668968,0.010651799126084289
1.5,0.12482536150472175,0.6154769551145934,0.11155724108212221,-0.005832453299934869,0.002423544613981145,-0.016338478361752583
1.51,0.10623437251153242,0.6001427080903391,0.0997181068812037,-0.010273053161431553,-0.01941217523721496,-0.0024511430196166775
1.52,0.13255595592304914,0.6638806787990513,1.0342695079111612,-0.015532466434625957,-0.02859779638842329,0.009197421909204574
1.53,0.11657058130069435,0.6045418327963428,0.1114695202032536,-0.0044534021111818966,-0.015666351214775283,-0.013010577065031094
1.54,0.11353733757667106,0.5794621367789364,-0.020594422148215677,-0.0014921412448421689,-0.002203891102015911,0.0016493540188103448
1.55,0.10824987316681703,0.6003186372588997,0.08700029961962462,-0.016773109520021513,-0.029360769550666507,-0.01484611225905899
1.56,0.11974716412625716,0.6100101891504005,0.05284986622964702,0.008016413527169385,-0.019167195584051118,-0.0049556249516398785
1.57,0.14461829807972348,0.6279188147943247,0.30980117366915094,-0.005874965321114065,-0.012447240402379354,-0.0037448157168199223
1.58,0.13341488778022303,0.6134894831869773,0.13058359841098388,-0.0031372196566279657,-0.0045824816078104316,0.007927756655645001
1.59,0.13371219864583153,0.5996899516008193,0.07712747894264092,0.003379527882967799,-0.003616348254902887,0.010067894166418815
1.6,0.13932422103700373,0.6051482476055694,0.08010693164163869,-0.009288799916400683,-0.0035717928317588856,0.0014973968348009573
1.61,0.13839550293812106,0.6119699212255536,0.052359662396907355,-0.003134774056269692,-0.01757915217559904,-0.0073041451104542965
1.62,0.1299267604657547,0.6144881681132995,0.15320535209033478,0.0011636053202695599,-0.009426104095913572,0.0063657163115331886
1.63,0.12304886764703403,0.6009246724159066,0.10776485138499255,-0.007749786644412759,-0.01571658266208785,-0.016911634644461663
1.64,0.1458076429586076,0.610380039282882,0.07953373666482584,0.017366659538172343,-0.01610384895588058,-0.01599290531359633
1.65,0.13980604254507226,0.597875592324211,0.14620391291642865,0.004198462352541088,-0.019327095949853507,-0.010295923214203362
1.66,0.1433654695962035,0.5843601020897722,-0.3411506362778584,0.005373342665805324,0.0034141017032041573,-0.0002064385371100474
1.67,0.1315497069713496,0.6043147221438908,0.1678828914571474,-0.015416780054469188,-0.008507633083960082,-0.005026222200406931
1.68,0.12436696323401791,0.6002592932306593,0.14027323703287828,0.015937128868318877,-0.02256702869962161,0.001750946720592474
1.69,0.14995148893806398,0.6053327365878075,0.07855893716537636,0.007467781913318757,-0.01767649074415637,0.01420663339709293
1.7,0.14568954183874214,0.6008898199991923,0.08323588834295134,0.007590303323720542,-0.006434551685630348,0.007656298996858523
1.71,0.1399861460294813,0.6090358454044842,0.05161257569275669,0.013710516488196989,-0.03706347574754465,-0.014326106984524578
1.72,0.13582556134497112,0.6040944851021297,0.16077687834706164,0.008272059398742478,-0.028159954142845955,-0.009257567430448256
1.73,0.13162673470698957,0.5384987882733018,-0.8098772050038259,0.020382776622140154,-0.01666649833370048,0.00528326471367412
1.74,0.14545266613955338,0.5988346013796848,0.13186214774170643,0.018803662504302196,-0.024497784772103424,0.0014774088238833894
1.75,0.16788580034054779,0.6024688844018923,0.11218113113900184,0.01805351233958635,0.012966425704905386,-0.0030306204284990803
1.76,0.16761300488475184,0.5856861418754759,0.09817037873830368,0.007711375393308161,-0.015637915897860996,0.005343917869530114
1.77,0.16413285066779257,0.6330873310652932,0.3305172517913135,0.01065430905791629,-0.007774475694041057,-0.002818616793093651
1.78,0.16328770087099576,0.6003926886216946,0.12098131314916455,0.027187859510018012,-0.017466298409927358,-0.001825278382386537
1.79,0.16790248521386553,0.5989970668120972,0.09825293634117031,0.005121665121006207,-0.006252558332198023,0.0029687385480882188
1.8,0.16609995274071432,0.6014827792739249,0.07554942104322729,0.024619003663085812,-0.013420211810766467,0.004509568985107676
1.81,0.15493866467853723,0.6051288321060206,0.0352210580851638,0.026992638673235685,-0.01003407382662308,-0.005730848852114833
1.82,0.1773720195010646,0.6095629497942343,0.16059583350508083,-0.00682881331130316,-0.011131546270663864,0.012794187173929918
1.83,0.14784271986760508,0.6089685319112357,0.12149287694710874,0.021444731410325213,0.014455097019509325,0.004014138024328888
1.84,0.1554295667830234,0.6106874958089002,0.08747836187163134,0.013801379056353263,-0.004101565030424493,0.008711638668423753
1.85,0.16321886946594924,0.5932016105809215,0.06676889310356941,0.024994314410659926,-0.01074630491739344,0.0025320249716261367
1.86,0.15734759893125136,0.5811134790123109,0.04467124508686388,0.016160215453544055,-0.01934807119068399,0.020954771297598755
1.87,0.15816547504246112,0.5867988426300214,0.14471446027428617,0.03204588596663028,-0.0022679736705184163,0.0010699165381832312
1.88,0.16838215603737078,0.5836939240501713,0.23876012607885866,0.015819397830699557,0.008775020881239208,0.012466210413754376
1.89,0.16100693247938128,0.5878346860173023,0.06426782945229978,0.023171171055014334,-0.007236719515846519,-0.006921072896782425
1.9,0.1598173821398838,0.5718837366778847,0.0465244129744387,0.024576938298271494,-0.0019051880968834593,0.009624986036822098
1.91,0.17959781498173488,0.5845533953962074,0.03221590826268514,0.011068384867488429,-0.00770934862560743,-0.010964392184509552
1.92,0.16002082297352216,0.5787611199128935,0.14450622339593358,-0.012650933224938432,-0.0015692813354773426,0.02131643732682541
1.93,0.17765863908439486,0.5752077258997186,0.08117711597166516,0.01699372233412767,-0.010314953531812906,0.017939682509713936
1.94,0.1855990214757637,0.5815302258377201,0.3539176787143127,0.03201984862706146,0.003790374524025874,0.016944805585224217
1.95,0.15855217863705967,0.5826143147022745,0.020883583497801193,-0.0007117556540898948,-0.0059312196081555395,0.000590245671145545
1.96,0.16848000899527404,0.5523344282780637,-0.1566894760739462,0.01855186691973474,-0.011937321668150862,0.007554780322754655
1.97,0.15764401767760058,0.5720896401015032,0.14901798937547195,0.015226569940156792,-0.016048450873220602,-0.005710371231373582
1.98,0.17705466168389136,0.5765639858990724,0.10221881189811251,0.0007372994608227587,-0.010727275598546512,0.023781480762635178
1.99,0.17512011671004157,0.5624923097227447,0.06873888749786924,0.025079380762236286,-0.008952220249652856,0.005015766253945463
2.0,0.17009279419934065,0.5358191222508193,-0.3103058250621282,0.02242495177389444,-0.0032661616438148158,-0.005130790015162187
2.01,0.17327412728720365,0.5483143310141672,0.04684291101352051,0.0006962230683449045,-0.023976163659788954,-0.018807597165651946
2.02,0.1814785009692331,0.5751697971060113,0.12700673652541858,-0.011728339561360636,-0.004244310438147152,-0.0003036808162114545
2.03,0.17802547894062187,0.6127454577247211,1.0187954316006553,0.015887158717769505,-0.017727670646490667,-0.0018593010485106263
2.04,0.18349869514260633,0.5509254255522643,0.0026718462508683264,0.019592490847819326,-0.0003033635986574284,0.0010427644805412258
2.05,0.17634253835995234,0.5486203642227908,0.006444824221813783,0.021553028527525265,-0.009157963292424517,0.0006859028396021078
2.06,0.16748631276476278,0.554235228769568,-0.013305093406900163,0.01912249534972445,-0.004155485261948917,-0.011767328386296363
2.07,0.18813370595005954,0.560594238003837,0.1030729365072613,0.024597248228623973,-0.004516815506760034,-0.005051013304718802
2.08,0.17370770765489918,0.536276311703671,0.05271494476277238,0.0049353483173994635,-0.01367412865515077,-0.005290565732453992
2.09,0.17808551666550163,0.5440967803474339,0.016032427369977134,0.008592609605337559,-0.008203941453631952,-0.004089116290956682
2.1,0.15752637868468866,0.5389424489246657,0.001149011990046309,0.029423182141015972,-0.001980328608721191,0.0034320132274281096
2.11,0.18632372885016624,0.5394710916285679,-0.010375564111106742,0.007736213982340165,0.011241114229040082,0.0008414849898160577
2.12,0.16550644475256662,0.5419401994557201,0.08461528536703129,0.017128286757701918,0.00608608791420639,-0.005807400123960034
2.13,0.18513920008243012,0.5521935065555219,0.05728754504524913,0.01967310046538887,-0.003398126627069562,-0.004057178666493378
2.14,0.18184627785588187,0.5443595164560446,0.032189090378099125,0.021003017005789052,-0.014474404302705319,0.004104494157866427
2.15,0.1805157394780765,0.5249058249539961,0.00875364092779322,0.01769389100945891,0.00927516618680981,-0.004323896943781904
2.16,0.17439636028202926,0.5425928484171235,-0.011135179881572121,-0.007055906194285342,-0.011206006846161501,0.0048094937825487434
2.17,0.18342359149739937,0.5397901590604594,0.08340579761471335,0.026198816530210913,-0.014052005347617667,-0.0024486136937762995
2.18,0.17566923485338132,0.5247358021397369,0.05380789873013713,0.013292229429152997,0.0013485746761177503,-0.0093493315209134
2.19,0.18273015344148447,0.5503777904183523,0.03700652913207439,0.04194238045693815,-0.00040938162314922786,0.006374613339201331
2.2,0.18742258054950783,0.5295425629517686,-0.0008590576614770861,0.009744062938256935,0.011384028850683273,0.007614528770528664
2.21,0.17754948995193404,0.5233562577839728,0.001709420902571989,0.016328170531452073,-0.007735244245320462,0.012640455033386027
2.22,0.18711755490310236,0.541532864536191,0.09366842202018945,0.029874814298023144,-0.014933307234750517,-0.015090744611410354
2.23,0.1698159347795315,0.5257981514011467,0.055308156834912935,0.012042403492238554,-0.008915165555293782,0.006665654718541988
2.24,0.17518227008497694,0.5095418324758109,-0.19510751812520105,0.024834671605281987,-0.008629895867533693,0.010409910698013402
2.25,0.1893511474801224,0.5133533566861812,0.006033759213020277,0.012233191959821943,-0.011125493720572633,-0.001145281956090734
2.26,0.17511231972395847,0.5136475511828983,-0.0022762255792341804,0.010810098392921741,0.005129327742659225,0.00429854184855081
2.27,0.21244491155647857,0.5265109190731571,0.08005689166668749,0.01024542451783955,-0.0023435416670697477,0.011235276887219195
2.28,0.18058395783875406,0.5102915848448801,0.06118404360996711,0.021125648513698764,-0.022810244215450342,-0.008156569671405059
2.29,0.18343437437988142,0.49846012969736575,0.021427756267312064,0.03583835720466143,0.0014994685481215199,0.0053089109597845964
2.3,0.1881148607897103,0.5166289914000951,-0.006808920287848762,0.02424495130954075,-0.009157491693968095,-0.008765770197099478
2.31,0.19346688363837403,0.5221343993680054,-0.016378380712214795,-0.009389778449574681,-0.023326176910870366,0.01020498908802618
2.32,0.1952646110646341,0.49584601702141695,0.082788564069756,0.00441176533338376,-0.013504627303909843,0.012926108732537914
2.33,0.17461831486035692,0.4823942203802597,-0.6534834075873258,0.014743610418466132,0.0026107302338011767,0.0053126967606209104
2.34,0.18993505902232422,0.524038049981308,0.06373281368235753,0.021399674649276213,0.000837571507483691,0.022490259065588453
2.35,0.19155422528701577,0.4900467426759416,0.036580373500391956,0.030055876013461175,-0.00021747629497419554,0.004491209836154576
2.36,0.20558428586906496,0.49721411425796225,0.010154462914428845,0.004707003400526702,-0.018945158676736726,0.0071142691670312615
2.37,0.20694962261007155,0.4985514359936422,0.09674691572100556,0.03314888174688567,0.0013632083650523107,0.009608573390280307
2.38,0.1800538479756374,0.5070956969701663,0.05439574106604095,0.025984418599509607,0.010285633814427016,-0.0019105427064055507
2.39,0.17918182935526905,0.5052195458433975,0.04858495406076646,0.045524297242594394,-0.015843264749542403,-0.00571866176367414
2.4,0.19808001291164778,0.48018526253997923,0.016987856580789606,0.017668118811345553,-0.015980809845018894,0.0023539061263658147
2.41,0.20647329764917985,0.4760676325861117,-0.35088742570057524,0.00039221166795802564,0.0018551177639865336,-0.018626251673550098
2.42,0.18436182977709378,0.4844940246451827,0.09847252129054782,0.007466299067697252,-0.007074819560699311,-0.014598922285465828
2.43,0.18918123703743014,0.4434243641289558,-0.8359251422557749,0.022354471034268332,-0.01698278219639407,0.0029243027543043323
2.44,0.19737302933240883,0.4844898457917492,0.1021122286385402,0.015518794512112358,-0.013581732506193787,0.001226789264610115
2.45,0.20425711518318881,0.49124255329966554,0.06766241129456185,0.040238611101461146,-0.005536154775561043,0.010823903088170548
2.46,0.19787915094771671,0.46732093104918604,0.040761885201285736,0.012956754507682714,-0.018488323559588057,-0.017751909069909498
2.47,0.20003932194870333,0.481494700122082,-0.13679990682224322,0.00963832488953555,-0.018483465547145903,-0.01500493848953755
2.48,0.2111045406257287,0.505738125646856,0.6222516901778654,0.026875933956404547,-0.02041112151091782,0.005831804423107092
2.49,0.2145623887552956,0.4909272858161204,0.5186002545968598,0.04227731771509084,0.025782852448064327,-0.0036284422360778334
2.5,0.1811200327746785,0.47013339725428527,0.0022376504203819887,0.03081268880882509,0.017159675231404038,0.0025315335814405926
2.51,0.20282243074764456,0.476854339770841,-0.027559657757801025,0.01991050803905333,-0.007829264495205428,0.010370313313378232
2.52,0.21121795314759773,0.47044836790475747,0.09141146886605929,0.03941242273659361,0.00014405118692484026,-0.013209736429171207
2.53,0.18602563739221634,0.4647980832005166,0.04028827986005219,0.02070232212886472,0.009542737184180212,-0.0005474375149773711
2.54,0.20170994436710038,0.44655514527739293,0.04666980497730212,0.030635357819941596,0.018102793968140452,0.017971081547853103
2.55,0.2194415109057346,0.4403360497158777,-0.016606157814102063,0.030397045643526657,0.005513555578977489,0.013540257296021926
2.56,0.20693944113864404,0.4956282439084285,0.5891370592141254,0.020230158697478746,0.0009090485448219722,0.0049024486484947295
2.57,0.19309493257852556,0.45308494068750343,0.05912560040888333,0.015940817635613322,0.00953104471512978,-0.001678597004606877
2.58,0.2165940238931701,0.44867946685543586,0.02713739737066721,0.021935494775916328,0.0036889635032283626,-0.008696077765099858
2.59,0.21365482386953932,0.4455938418176377,-0.08455538429653692,0.042183944706627306,0.007372025407136799,-0.006483650902596264
2.6,0.20522067769684407,0.42753053200790553,-0.010217659544238424,0.027266537293266446,0.0025028019337949682,-0.008482395235781301
2.61,0.18844185963037743,0.46002000616834277,-0.041753532725844096,0.012299244226298274,0.002677148561348719,0.013819614422132717
2.62,0.1665381717937638,0.4251964833209963,0.06731525763020407,0.016786353930492923,0.009744441292545453,0.010886006732502323
2.63,0.21046127705911566,0.4750598761013042,0.5496602957952462,0.03213626547151055,-0.008601073261066117,0.012330800900604141
2.64,0.21653740457201914,0.45460454598338984,0.5530801290139814,0.03182582350077025,0.009139803670967419,0.0035471893886081297
2.65,0.17767271641940627,0.4255971351791376,-0.06266201594329388,0.029927032025403852,0.003830032746285128,0.012984173403601446
2.66,0.21210683644457495,0.4195750876715725,-0.07747755532004438,0.051506530995501065,-0.00013269976562312047,-0.00751294743171224
2.67,0.19482502414222427,0.42056672493027103,0.0070884761370099275,0.054568353504239206,-0.017903247732041355,0.0070477933643922405
2.68,0.20196551485303188,0.4289884280565369,0.10913311185608446,0.04439526813762397,-0.018048783946788244,0.012516222252969153
2.69,0.21036142912446537,0.43737817593107636,0.18338690182078066,0.02721542370468276,0.003968221393413896,-0.001960909028287441
2.7,0.18819011603142083,0.41908054873487743,-0.07408254702819196,0.035271531636046655,-0.004805998411454869,-0.010932568873286547
2.71,0.1944149286086521,0.4061398819859645,-0.12187375850637788,0.038681628682337085,-0.006226431611284781,0.01327261235295345
2.72,0.1990689885886026,0.3957584635014554,0.03269309643776758,0.045353859355874576,-0.008764199106267401,-0.010711251477930452
2.73,0.19218592401944257,0.4073143897629614,-0.002445542886094741,0.03543714365295515,-0.01083051388261572,-0.004464509814452133
2.74,0.19418470929677734,0.3986527952223594,-0.03906879253355158,0.06621388384487395,-0.006728835964046834,-0.017512520311006252
2.75,0.21408414989459437,0.3863548760415419,-0.055703187751990506,0.04902931651846902,-0.0013479536920778974,-0.008247144058706251
2.76,0.1959915874491823,0.3786853030099299,-0.04048359924990742,0.033407202927756445,-0.010925488790663568,-0.004121232523862041
2.77,0.19001603267633105,0.38146984547699814,0.03951522596698681,0.07162670232626549,-0.02588130521029894,-0.0125356453448665
2.78,0.195995631869671,0.3714955484847521,-0.0061808340818660466,0.06698764714484272,-0.0037245393568138257,-0.0012991354270902133
2.79,0.19094492259397114,0.3440474012580215,-0.7467596017028426,0.06288204762494964,-0.014545823270244375,-0.012914282496110065
2.8,0.21183653435549513,0.35096105686441825,-0.012999958018670543,0.05108585182981679,-0.009070809623288486,0.0149321862370626
2.81,0.19950498489722773,0.36147284308771593,-0.038082865591875355,0.040256151760968695,-0.010417699507487587,0.006824494748494657
2.82,0.1997392118804437,0.3609056060611387,0.038591480395087245,0.05683404592355165,-0.012076003330620496,-0.012810827446406558
2.83,0.22031732061278386,0.3520532930358384,0.024483378762387445,0.04355066963638364,0.002559010651161998,0.012264653974086005
2.84,0.20522318119043412,0.36550272974256387,-0.011072253197245113,0.05985567296217561,-0.023527028466951552,-0.005251963948727241
2.85,0.21352478478680084,0.32809172624606536,0.022135807772812193,0.047372696126969316,0.0011761195568889072,-0.002529699660188232
2.86,0.20586412499515197,0.3388585377372905,-0.055235119064461886,0.053271793583272165,0.0012192558884590934,0.017925061347105045
2.87,0.2192880792982693,0.32504905032093295,0.06262463180381668,0.03354340298596099,-0.03598629719498612,-0.001963321475560057
2.88,0.19885586506904254,0.3153950067797563,-0.7284986711738033,0.040937517767409275,-0.02323409881039129,-0.006344666233542607
2.89,0.21235364404852525,0.33593777186778634,0.02443714270123765,0.04002977585141812,-0.01665041335661045,0.0014567876115704444
2.9,0.22375866996005941,0.3244097427845839,0.007525278091910725,0.054921985351061194,-0.012467411726613857,-0.006603092452567714
2.91,0.21272157122804844,0.3080210381949669,-0.030261614600826776,0.03951733035872015,-0.014093397692763377,0.012215756681988122
2.92,0.21514021425861707,0.29777840215188817,0.0643378983569524,0.044445225211377705,-0.009714516011871344,-0.00689325479255376
2.93,0.22040738331266468,0.32435747215203276,0.012389254761593152,0.030754423706483326,-0.002744050936054747,-0.00898641338193498
2.94,0.22751295038098157,0.299580844005081,0.01673511133973451,0.02650556886722991,-0.02105769658795824,0.0081534425298042
2.95,0.2252448951330209,0.297438583500064,0.0002784030797028901,0.0301170013650071,-0.02804848804762935,0.005941892329706292
2.96,0.2044042094239919,0.2751716213667625,-0.6197382520821528,0.015720883323519043,-0.026279069512526572,0.015326948100390411
2.97,0.23614742661827026,0.29340529831091916,0.09726157901982245,0.025211242096335018,-0.03486635923851393,0.0032971131101664766
2.98,0.2121013713157556,0.27034561810068264,-0.7675284680516595,0.0412711209201751,-0.03459733343019453,-0.0036838074296791545
2.99,0.2587622538693208,0.2990274102816347,0.0549721867483296,0.04934956633964524,-0.023562332621521475,0.010196713322566324
3.0,0.22250447219909103,0.2857840536408515,0.03691019908474633,0.052774814429158504,-0.029528370471927953,-0.0015672281719306658
3.01,0.22802882719702114,0.2877388840358058,0.02964709373255533,0.017718357561975713,-0.022121317910555133,0.008642177972095462
3.02,0.2410946230381115,0.2930074182063439,0.08354265512379234,0.029996685367253344,-0.013541781367061745,0.005031434821036151
3.03,0.24349306766777137,0.27568184361972276,0.08024890207408257,0.03669423831983203,-0.02516180713960202,0.012268133811031718
3.04,0.2544497785894071,0.2812748277652845,0.034354095137019786,0.029713505747627607,-0.010333236734316315,-0.000350961005204089
3.05,0.2425561928852265,0.27599585481705824,0.0017258839168021126,0.034750174206579304,-0.019978855958891532,0.006446386041512256
3.06,0.2551429047232069,0.2564921178532021,0.00535392515459961,0.02340579178777658,-0.018670124810851025,0.006502660294810074
3.07,0.25033728649361797,0.26177047974713036,0.08392629003277999,0.03073040279785966,-0.014495721908586605,0.014254011830409521
3.08,0.2664466334863052,0.2594462857258198,0.048788785498844814,0.03187437386095944,-0.015419671172807842,-0.01037518731010134
3.09,0.2575410335311836,0.27364521697802524,0.030301609473188666,0.04894264379332061,-0.007352988924697289,0.009544038277954171
3.1,0.2578390024046878,0.2493725864732273,-0.0028836526482688843,0.0379131001600232,-0.016625854370911547,0.015035368898762305
3.11,0.2600949530186281,0.2507673096182621,-0.02994900017935636,0.02249236810696557,-0.009522650296615162,0.010374307696089116
3.12,0.2497899488226274,0.25683352245937174,0.08387263980216345,0.025779421060104925,0.0021802428971924217,0.005486276184322177
3.13,0.27615080213972687,0.25663682157243106,0.0423673111616111,0.033191445843202556,-0.01976049008889564,0.017415149292264443
3.14,0.24882227353935119,0.23273083764949706,0.024454666892851397,0.03645031820556228,-0.01037516969472712,0.0010171693454052023
3.15,0.2662961552159347,0.23445863099064257,0.0001773074222795835,0.04187566613913059,0.001866480450388508,-0.0010048389380786305
3.16,0.27216494911596667,0.2394446484867941,-0.013393879258497625,0.027083376091704782,-0.006070733888506567,0.020042118177365533
3.17,0.27672464521786283,0.2403038812457644,0.1262277379078703,0.01727882118993456,-0.004154801990121561,0.00546369177391566
3.18,0.26643379011348706,0.22739926947281114,0.034285884537371324,0.025036024792876938,-0.012442047522798233,0.00700628408750245
3.19,0.27279767256107484,0.22357291460223,0.019135936434529766,0.021436668663588725,-0.0004236044887660094,0.010121264360541808
3.2,0.25964953375851546,0.22215685316743908,-0.007140457470645924,0.06300369872643934,-0.012914583786717369,0.0003887537999401713
3.21,0.2620116225738215,0.19960042102553327,-0.023267616956232667,0.03011886921239572,-0.00471722200737934,0.006842487923277286
3.22,0.2594860414240014,0.2036563178004516,0.07466975856914586,0.02368894717735375,-0.01984561634413815,0.01262489351205676
3.23,0.2722550861536088,0.20843564327022782,0.027957053512960996,0.03631100562913263,-0.015057512178958742,-0.016369667719786353
3.24,0.2642528070521581,0.20368080546981032,-0.18101115428417866,0.0493594350164725,-0.006597081104478953,-0.005298318744629456
3.25,0.27386581722493086,0.21045374013789359,-0.00031354439358543054,0.03945851525920074,-0.006978524946493002,0.010676655144456454
3.26,0.2579350123876917,0.209101460369332,-0.026554650630737194,0.015186944650793732,-0.0032126179157092004,-0.0022720313250693316
3.27,0.2695850037509361,0.20074276644862826,0.0713714961951785,0.049522205083934324,-0.011810462183613785,0.007310039716606083
3.28,0.26559205856325224,0.1870235363262026,0.023261039058460227,0.024200552826121675,0.0014770973465247522,0.0032821157125094355
3.29,0.27257400300202156,0.17932304914746008,0.12688430683239646,0.04942863063231315,-0.02561545094066479,-0.009031776104238673
3.3,0.2653403623068007,0.1841980668680135,-0.005696312068762534,0.04704331526805108,0.0002337103769462813,0.01705270554618874
3.31,0.25347426715907084,0.1689367575520004,-0.6056949573203094,0.04813029488617342,0.002293485144642224,-0.0018660084891907874
3.32,0.2633477483683293,0.1800843618448028,-0.5120899364625798,0.030559711307610347,-0.012393446566136078,-0.012150800184974761
3.33,0.2793711067109201,0.18395705555899444,0.09371128605042435,0.04321579238368325,0.007920380863027394,-0.006854206035267856
3.34,0.28060059325385367,0.1712573965984361,0.03914677511904016,0.03293847579646362,0.008470568013291827,-0.004811150103932333
3.35,0.27725313523735706,0.16756650904412623,-0.0034462983708961788,0.030092308903986488,-0.006176016975508259,0.002716135941582852
3.36,0.27600520097134784,0.1816664573506315,-0.0006842170810778185,0.02463859243067169,-0.0016387395226011036,-0.00871962373484016
3.37,0.2908461259154112,0.15387583370153435,0.08908673174068352,0.03112419020108469,-0.01800887371191886,-0.020274216541447405
3.38,0.27148090291314486,0.1722526400764244,0.06892293950532917,0.022208212445215904,0.022480324878760106,-0.016314775946592888
3.39,0.27581698285654493,0.15932786622964598,-0.14845467726441827,0.04225240106995011,0.007855875522989874,0.00022831909143345482
3.4,0.27992990373153953,0.14571024232313018,-0.3476488710787765,0.026199718868344265,0.0089214541864594,0.009210720603760804
3.41,0.27807902693946,0.1529926356457148,0.013581415763581716,0.02368679589954584,0.0010707150150649112,-0.0009675985846411723
3.42,0.28789753364370607,0.1481666811320115,0.10916909540478036,0.026304682465857737,-0.008650694850349933,0.0024497565924832595
3.43,0.2763875446394248,0.12159990033928857,0.08191346489047929,0.04442249046310333,0.0063453276938470965,-0.008160531035736232
3.44,0.28001178204009686,0.12750862634758806,0.03624396394001767,0.02570422104596592,0.013416921271943797,-0.005003294234842983
3.45,0.29819462441715944,0.13663236822921018,-0.0004016513997515056,0.030440091136208366,0.007834558354737212,-0.008916092105262056
3.46,0.26877348765548054,0.12794426149747265,-0.004063734757191418,0.0023389737735356082,0.0203898147905723,-0.015623957731326084
3.47,0.2682664310412934,0.12401470660590254,0.08513773188539239,0.023544206700207824,0.007644574502219896,-0.008494654913617648
3.48,0.24727844796951676,0.12645938457598116,-0.9152307167799936,0.017485005904864556,0.01632250636395527,0.005072308952130936
3.49,0.28186179819371365,0.11657794002612334,0.09208486376404651,0.01877473740723971,0.010726980831650941,-0.01222563833306144
3.5,0.26730179819193467,0.11313136884267538,0.054613096357669436,0.033472469235233726,0.009420047252058097,-0.0011971488369975666
3.51,0.2666036716267539,0.11217154723941197,0.010253752193050487,0.014245586599365081,0.007492475814121856,-0.004351159649887173
3.52,0.2882713272824745,0.12773731845823802,0.12392340396059376,0.014427887028974492,0.014501589958858037,-0.009167184513035498
3.53,0.2743714817719274,0.11937865370269453,0.07539962806516377,0.01683193548092493,-0.005831280140911895,-0.004306255398743509
3.54,0.2804035307043222,0.11141223195265626,0.04465462569079782,0.018230089501478086,0.017082537929494174,-0.0009930679874960414
3.55,0.278975522350234,0.10073705114224468,0.01831745195097935,0.026086802547408437,0.020193024368096835,-0.018525259642880293
3.56,0.2661082577884193,0.1310410961975571,0.020963890339234317,0.0015053420668367339,0.010158469549701166,-0.006213515935805814
3.57,0.2858303122641958,0.14073516089374805,1.1884699831043104,0.03145441506153409,0.007362499501069399,-0.0008092619049673341
3.58,0.255903941266351,0.11444872322020354,0.006300602066627992,0.03999491865571367,-0.0021483121569804645,-0.024967334477715722
3.59,0.2642549133531564,0.11250052107124388,-0.02048854425975616,0.026673605939225846,0.020347073875311976,-0.014177451722060586
3.6,0.22464031472024676,0.09611902137395643,-0.8849455560819591,0.026752261911718384,0.004143370814288706,0.004317374116717064
3.61,0.26164885078562167,0.09907546197582434,0.007179891273629369,0.02034577864042303,0.00831477267334568,0.0032921339275412166
3.62,0.27631652871065926,0.1228882823189143,0.10676416386411705,0.021214617550328177,0.01451205515907585,0.004830797755084021
3.63,0.2688576581185781,0.09579113716260344,0.05750213975068082,0.006929871203102124,0.007628843902322899,0.01186633402928507
3.64,0.25651823061636225,0.09296997775478573,0.041473728087007194,0.04137444646517463,0.003766563776552257,-0.011024012859227845
3.65,0.2495383207790404,0.07075492168080007,8.096637709370177e-05,0.020792208542020046,0.005558126006882859,-0.005172896725388759
3.66,0.254520601454303,0.10524200918918296,-0.1711746848749075,0.024500146420590632,0.00981402592056347,-0.0029795304592084106
3.67,0.2567178323844876,0.09684736129307615,0.1079820044636171,0.015597519941700853,0.007110391767093564,0.00331027341772041
3.68,0.23987700816476804,0.0911920112606886,0.05990730556851597,0.02810143074685214,0.017745152273837828,0.015267512258986773
3.69,0.2479263538158046,0.0817521750809222,0.032346021716472786,0.03585777239594361,-0.0010900115262686399,0.00045503206233005796
3.7,0.23402311314141633,0.08235751866753548,-0.008830204507923038,0.03067096673104812,0.010871615548922249,0.01651923124531144
3.71,0.24022442385823164,0.062135440349602944,-0.01263259570734712,0.009137377214478423,-0.012799274864685245,0.0008001352854693082
3.72,0.23666314373177272,0.06117375876635375,-0.7762178391141726,0.02219109176909971,0.0015305988208839092,0.017992395817285237
3.73,0.2525867710345371,0.08258793748116132,0.08014454303047247,0.011259728688139181,0.009011033145973752,-0.008305401662916873
3.74,0.2460707804948103,0.07897417213328536,0.04755511425043091,0.02531007091372267,0.00010949513680507056,0.008332359846643907
3.75,0.24027423508839243,0.06574996904084078,0.03264026102806396,0.017029464614190776,0.01976767673846796,-0.002771264676950527
3.76,0.2688100497680677,0.0677932937261933,0.002709468142053079,0.003493213409076947,0.00357676985261066,-0.014302172138294376
3.77,0.2615403752295649,0.0629135292797115,0.11213361135344231,0.014483020219311197,-0.009779719843006796,0.007206187416303949
3.78,0.2529746891304942,0.05595378458846955,0.06341531587346425,0.035751803814374525,0.010593050694424495,-0.009583408689653843
3.79,0.24038053790996994,0.06514240549909836,0.008916736583690951,0.010251872900897489,-0.009520190831660528,0.004314278636981807
3.8,0.2505256549073372,0.04274850452804916,0.0538019451632024,0.023452650027387306,0.012331009095193224,-0.007763367546509395
3.81,0.22955894915022507,0.06110222358756637,-0.26313417288216956,0.018630726992220455,-0.0029385728202491524,0.01230875631942054
3.82,0.2648781459936347,0.07584641661644854,0.5659314979487059,0.013057169292794709,0.00620113254020665,-0.006241724764334957
3.83,0.24672584570163922,0.05143918095493716,0.02626652463047726,0.01271385924784756,-0.002200107335836825,0.014114900208186149
3.84,0.24377299978756628,0.07785103241315967,0.004285403700492553,0.01833266888434613,0.012098104599158978,-0.003245857410530527
3.85,0.25634515532613666,0.06429799319457741,0.0025964625178308137,0.040133254425563744,-0.0058795640070182,-0.0047768957476415266
3.86,0.24587700373866547,0.03816526419960485,-0.044345957999276,0.010196480447642601,-0.02218836844168345,-0.007192441719976378
3.87,0.24366068678335495,0.053977460321326415,0.07094887657147399,0.017533787872485017,0.007414246827877554,0.014876740013629255
3.88,0.25503820781852227,0.047101334871625794,0.024595360987900074,0.018071262765102653,0.009699721856942954,0.008450221625370551
3.89,0.25383336820999564,0.042964508499942135,0.014354784780646416,0.013019584178573154,0.0023516766269217485,0.00227383365931514
3.9,0.2590746061886466,0.024245366802141517,-0.013519553739452347,0.026476854125737793,0.007812891154206294,0.0036902932255461285
3.91,0.23190345362799597,0.04056757502130817,-0.0211803979382914,0.021590229355971106,-0.004284462664766874,-0.005155554745997746
3.92,0.2576019786267203,0.041664434171645906,0.0722865387048058,-0.0034726682868957606,0.0013403457894223241,0.02064372552217841
3.93,0.2522773267054009,0.014255232225560813,0.03590310849505085,0.014775659781888571,0.006043709809739472,0.002327217743189083
3.94,0.24911452640083873,0.03684535874327633,-0.015812945182314332,0.009735187647933493,0.006536231208675916,0.011224417420604971
3.95,0.2605039810305544,0.044756624559109524,-0.020056234047465007,0.03678522330162713,-0.0009111182825270719,-0.01851679549782402
3.96,0.24560037276612717,0.05385079615781298,-0.027209091000480128,0.030665113300286533,-0.001143500227023997,0.005467995088269264
3.97,0.23996541843690022,0.04235255971920453,0.17567600771956374,0.030177680784183033,-0.014795233075592452,-0.003052363542302531
3.98,0.24672610949032647,0.03951295453170544,0.018088865532695526,0.03601753562466959,0.007736545013167864,-0.005429770531813349
3.99,0.22326060374007733,0.03395184011970296,-0.08911194090266031,0.0030026377237179908,0.0017462218974486012,-0.003517250130038372
4.0,0.26149221870962863,0.03093414286787197,-0.018590957545100494,0.01999380211173675,0.013926987793660158,0.0014841963798673916
4.01,0.2357490623118447,0.021313478723069722,-0.02352116118813262,0.0017462805626988426,0.0008992389184117088,0.007839624641018336
4.02,0.2536867366611037,0.0004103776247377372,0.05746396879255152,0.00951402709296556,-0.01581150558293427,-0.0010327004539917694
4.03,0.23609236452119647,0.03691235674272193,0.02369536698810368,0.011142343485968124,-0.0022941856933659417,-0.0005141490771195901
4.04,0.2283052768717101,0.003938428995416824,0.007594589037261049,0.01807145364190704,0.01843205128061216,-0.000993446535876978
4.05,0.25290474428063714,0.03065175475193411,-0.024953149359258187,0.024819781615269907,0.027012491228190116,-0.014118797230187828
4.06,0.24450821020133898,0.010835319707910743,-0.043209319424631215,0.0006223237146519879,0.005034258801123183,0.004314940984198098
4.07,0.25684148159136,0.017407508638815586,1.1044091460193375,0.0017516683104220696,-0.006299300209739123,-0.01695972883210256
4.08,0.24493996880566843,0.0003585241841893433,-0.05750649217142667,0.013542736772161114,0.004391357443995414,0.01408694272893534
4.09,0.2583027846735893,0.019010098791798637,0.31553732437512727,0.012694660819859566,0.009215073816554792,-0.005552757386728516
4.1,0.22859130099891076,0.024224559823879645,-0.08747275171871176,0.0207687272526793,0.0073920383687165695,-0.023715636367382324
4.11,0.23856316617135723,0.02037009728737317,-0.10412883122942009,-0.0008401373616279363,-0.0018499830097960153,-0.0013181374630624482
4.12,0.25600031641575727,-0.0036801716106973376,0.7378867439509581,0.017897934556962793,-0.015325100866136738,0.013342218211692387
4.13,0.2396670957208751,-0.004178895767062716,-0.06079242073840713,0.02692886580165899,-0.0034140718083302967,0.0013631829632844315
4.14,0.25279178686364545,-0.0010702602833992624,0.5946407592588339,0.009585795645033217,0.0075310553950183375,0.012234413483167143
4.15,0.23902523334900036,-0.0035536098005977384,-0.1345863924454761,0.010137533058859248,-0.01258410328039937,-0.0005928109444103967
4.16,0.22901034532541725,-0.006957280933218278,-0.14319777235573508,0.003441642419269997,0.005001908970385875,0.012071553678814186
4.17,0.2285039621364415,0.00757799823885506,-0.04303254224341267,0.016699242515836252,-0.006149972882547667,0.0009386557181379164
4.18,0.25011284170241194,0.00440933826391936,-0.055683881112552285,-0.008725944102055235,-0.011873388020273885,0.022567341039630776
4.19,0.22944473839046153,-0.003875100949722202,-0.09118358384364823,-0.002149560662129865,0.010470422020222492,0.0014217022809930417
4.2,0.22208061096880524,-0.020235110666531924,-1.170279850923259,0.02306737601724948,-0.0019664502932708033,0.017897162930592347
4.21,0.23197026994704928,0.003482137691380894,-0.07315933689439515,0.014912602489591536,0.0030172086664306775,-0.013316235712349382
4.22,0.24549974432819996,0.0023601488531427056,-0.12032858270279735,0.01274454332422135,0.00024687963929547526,-0.0014697514760057045
4.23,0.23646057860700911,-0.0025142915292505593,0.0073560401009720895,0.025222418409107536,0.0036219951669117243,0.013430082123908789
4.24,0.22945208280513762,0.0032851083825925394,-0.02146022228601946,-0.008735521252010709,-0.004770836964617685,0.0046241238427069805
4.25,0.23548802298386465,0.007150610606837025,-0.06236374051674622,-0.005950054189252303,0.014875087769245145,0.007878183688418664
4.26,0.24894819639359939,-0.027928913011932236,-0.06885715550128901,-0.02239063266156145,-0.0030332980167607076,-0.005109004568011492
4.27,0.23117343261292328,-0.024496769324393375,-0.0049303985449318,-0.014719819040644103,-0.005899775657727175,-0.0017846659463008696
4.28,0.24640594722418788,-0.007065960112308313,-0.03296364353387045,0.01477817337211734,0.0010750013947937826,-0.004513429109661422
4.29,0.22413392256600811,-0.0027335028615510363,-0.048671816676085465,0.005936996685968973,-0.009793137329913123,0.007620851027493692
4.3,0.2417492731900487,-0.006930795570665376,-0.057950512929916514,-0.012572937318876565,0.016744952364388964,0.014179186285012507
4.31,0.2426468651960332,-0.016835481394959433,-0.08721172061850277,-0.006708146497334976,0.005807134552012661,0.0005457192530731117
4.32,0.2510542679944952,-0.009198951446322044,0.6091432224947059,-0.004428370221038381,-0.012094111661766455,-0.00406532707957617
4.33,0.2211010328749309,-0.0052477452209449965,-0.040782477277422395,0.023999543189872623,0.016839348569408774,0.009835454217314389
4.34,0.23863946583288767,-0.023017185180806053,-0.07893393058386904,0.02972605485179056,-0.005351068811699293,-0.008539303331061194
4.35,0.24196043718046317,-0.007956448612778114,-0.646102196790963,0.003574474796042783,0.005952654278234614,0.011740875815778398
4.36,0.239787577526279,-0.009549565593527896,-0.6214323932907032,-0.01140000306949462,-0.018611486262180964,-0.010029050225235637
4.37,0.22758713879639364,-0.013892490953860692,0.039660622772949294,0.008614070398244907,-0.013487746148403172,-0.0009386989710344505
4.38,0.2532944271379311,-0.010680040072524643,0.8949790433839316,0.004637899687471595,0.008549372463383935,0.0064436517052781335
4.39,0.24783192595715275,-0.011723597447173396,-0.08432383121988649,0.009001871215568835,-0.005688439380822485,0.0029243082758642173
4.4,0.22672452497892528,-0.016640279808950137,-0.09583811705821559,0.031186738248685043,-0.004364625501540332,0.0021870405612862526
4.41,0.24098640875123675,0.004249571078606226,-0.08360824626366692,0.011787500419937605,-0.007718587097476146,0.009379515260341857
4.42,0.2284091458632662,-0.011751286473750271,-0.009688779072510555,0.0001993304831706729,0.005411443093590103,0.00037518784357391853
4.43,0.2368828659157309,0.004643960031239444,-0.047255569751196304,0.01948971589524643,0.011388850241866252,-0.004095389028350571
4.44,0.24158097725797548,-0.026479069529627697,-0.06469383298472836,0.0042518560654878955,-0.0005072146053004246,0.011692985703563547
4.45,0.23244326270893287,-0.034124453400113886,-0.09363766796389555,0.027105406487716727,0.018682930654831807,0.0023105685095920975
4.46,0.2291946105407409,-0.024955281907048953,-0.10563643663758004,0.021512296656678732,-0.0050055903565328335,0.00906627171030464
4.47,0.23317518096352052,-0.009406487983693448,-0.0652543852715467,-0.00751627341980809,0.007823858710982503,-0.018414699235855963
4.48,0.22727256451704117,-0.013442470320263657,-0.02851071573290312,0.004953618223278148,-0.0021859569912550444,0.000626234967895174
4.49,0.22480111275379097,-0.030421874977511493,-0.3518703979851637,0.03364391927238094,0.007671876506032295,0.005635600109996019
4.5,0.23790853389701969,-0.027544940627174594,-0.06622954013631022,0.026103592414419313,0.01768820986357785,-0.013586718975400931
4.51,0.2505452925145843,-0.024067911155112344,-0.06088874042324083,0.02100710063420333,0.012829974218856292,0.009191808986761694
4.52,0.2737909155014073,-0.023814779220875378,1.0499139034237939,0.003609527453632009,-0.005443204627975618,-0.003078542660456632
4.53,0.24130414488648913,-0.03969103512253666,-0.2239902021730543,0.017091906833594562,0.003177789429253939,-0.001330194834722315
4.54,0.22744502629871677,-0.034314174398582885,-0.08979349282181331,-0.007399282156012103,-0.0006874315006017775,-0.005853278076588397
4.55,0.2526413271731393,-0.042570106994160466,-0.08988407702924611,0.02659964790868576,0.002548408946650973,0.006876623366905366
4.56,0.22106112466239497,-0.03899124551387476,-0.10908195656290882,0.024827303046043497,-0.006923817816186343,0.013597129531684031
4.57,0.23438818173751358,-0.03370953964399307,0.0013941854399207344,0.017752009287683078,0.004338074666933924,-0.0005176928858513909
4.58,0.24942392563270432,-0.03833734526579102,0.510163053241677,0.004475865338492846,-0.010689937999118751,-0.010939684012398344
4.59,0.23004571895596806,-0.025867826775258257,-0.09213817872251769,0.014282251878931663,0.010169118293396768,0.011981935033724841
4.6,0.234258395855064,-0.0446327553042786,0.32175012337927994,0.034484056121498054,0.009406761042985039,-0.0010446782686011204
4.61,0.24885148605447485,-0.03363079634965081,-0.13440524018790162,0.018041288955620148,-0.0079874768635891,0.00445708466999127
4.62,0.2400457675489286,-0.016831708906574844,-0.0360924778577625,0.00826113706443786,-0.0017616075137679987,-0.019119376354251552
4.63,0.25217147444688587,-0.041214140920154,-0.07224166770342806,0.01767358531147455,0.0055064618982499005,0.014970823813124229
4.64,0.2262550352119191,-0.04169702444917998,-0.09702212231775979,0.009051436937362425,-0.005136293312978887,0.010017991219087957
4.65,0.24728618170467445,-0.03595914658429252,-0.11184264906747711,0.017071523932933055,-0.0010720770886454584,-0.0037489909706175887
4.66,0.232145336590932,-0.06162817981709647,-0.12642852233112697,0.0003042093210642491,-0.017922121187864876,0.011757354339499246
4.67,0.23389570268965873,-0.06241611671011381,-0.0374140595340503,0.013609891037630216,-0.014448005093821185,0.014231957554289895
4.68,0.2221239146488368,-0.04616477591309971,-0.10728795384288597,0.007930281299550184,0.01737612543085541,0.006637955769411077
4.69,0.2333051444263468,-0.03830643077145207,0.21888499162472866,0.03143941449187118,0.0028055426880010835,0.0031961747705474015
4.7,0.2301665788261078,-0.05296696309894347,-0.13376153665032353,0.01991957824749996,-0.011422227147464301,0.001842310191521136
4.71,0.22186329684872466,-0.054745703932811876,-0.138739518447926,0.017017616511658017,0.013444736536243874,0.007238948792179938
4.72,0.2419426909206059,-0.03562755513341688,-0.056989958076748094,0.02022654532435683,-0.020679030556955642,-0.01037097692186004
4.73,0.2230547695027787,-0.05009205599166771,-0.09773715125405652,-0.01575618721919745,-0.010634328702204165,-0.023662694858066012
4.74,0.22037749318320898,-0.050711796886631244,-0.7157748414276021,-0.012420560709908749,0.006074031786534953,0.0008041449049964091
4.75,0.2871109070592627,-0.07337241502548261,1.0853269112218176,0.010196191239282755,0.011164990893415036,0.006161467331590545
4.76,0.22938755403928524,-0.06560224707671891,-0.1436810202080693,0.007834126577621456,-0.006522923585564387,0.006549603325940644
4.77,0.2301546476028941,-0.05833849578070429,-0.7278716978622675,0.0022734590198061648,0.005856937581246842,-0.006323098596595782
4.78,0.23814830918906985,-0.06558430129678836,-0.03533995878159647,0.005754482730081879,-0.005137083228238514,-0.0011299499745116945
4.79,0.22581953315444922,-0.07292625364351357,-0.08395457957801707,0.025455949283115092,0.019392728318792178,0.004700616816084823
4.8,0.22801184606927344,-0.03906884181351607,-0.0976792283169521,0.0160639097525994,-0.007724777641955546,-0.006993976989314388
4.81,0.21375621898932862,-0.06810939934923707,-0.23182923622181995,-0.0014600299879959915,0.017795659906764835,0.014480883343700995
4.82,0.232462856330144,-0.0577070111652335,-0.033255786384984526,-0.024446482814067753,0.0036993640787549606,0.022066859567566776
4.83,0.2376898129149205,-0.05987118537802372,0.17378455073711754,-0.008793394424840957,0.02151868535866072,-0.002070288350181069
4.84,0.23242058705144295,-0.05371266292507118,-0.3185018459475094,0.012482673748585693,0.004005413356008425,0.015652874226389293
4.85,0.22452501427587832,-0.06023187693336541,-0.06049643954375325,0.016238051317983816,0.002530988393767303,0.007365860453972586
4.86,0.20361927585183404,-0.07094627990056136,0.03754291037709381,0.009378813879521625,-0.003614108670790309,0.030801622176034098
4.87,0.2472650682900581,-0.05699149804734794,-0.014471479657197906,-0.0019307978745808974,0.01279385080571882,0.010642392574497393
4.88,0.2387506525229413,-0.08140657470554591,0.29929802654656257,0.002796750296311594,0.01346190434209543,0.0037836552007140594
4.89,0.23802984802950028,-0.06893040773728125,-0.10242064017624265,0.0014311601079912894,0.01530076274348874,0.008035417895036317
4.9,0.24507533405469178,-0.0600839767980122,-0.09746996983565628,0.018673287740616665,0.018682833580210553,0.010808808148332256
4.91,0.22502959845378476,-0.06558931288670292,-0.10375480927180442,0.0013712418026986274,-0.0022193353018328922,0.01449258263256284
4.92,0.23544381605114853,-0.05491657297949916,-0.5298972064743622,-0.003493566895612614,0.015307262062195005,0.0018527819249985135
4.93,0.22542209784619813,-0.06673808434922804,-0.020237991236406266,-0.0005917636323426643,-0.0035504361166079808,0.011131408215976257
4.94,0.23128947892959034,-0.07567917937340078,-0.04476429635239282,-0.0026337600039052183,0.022662467492933113,0.024355605482519187
4.95,0.22753809182682758,-0.06317195498258604,-0.07546077544534116,0.0020535245629072344,0.008431756030589122,0.01326506909346592
4.96,0.22747041285270592,-0.08073632844396567,0.12731731302071606,0.0028851566376609395,-0.009514231456135537,0.0025327304235630995
4.97,0.21906093455440268,-0.07134979056152305,-0.03320438566949255,-0.009882997292496313,0.008942933580977894,0.0063016082243723785
4.98,0.23166876041641205,-0.0788720875971576,-0.0452793270840093,0.007243144939351098,-0.0037702382680836356,0.00042940290665107383
4.99,0.2379410506130988,-0.06345129073883454,-0.06077568264616294,-0.02123904964436893,0.007973429598198408,0.011787439395207497
5.0,0.19881689737935465,-0.07332677123683447,-0.0689282980366771,0.0044757421645752315,0.0054843018739089795,-0.002836159451720612
5.01,0.20157900492651926,-0.04914832670761912,-0.11069257411199712,-0.022837571883345554,0.0035103201308773965,0.008597079758150473
5.02,0.22574512930199347,-0.06172349535366628,-0.02167860894558147,0.006754717714333716,-0.010448979304694628,0.0051865014932354365
5.03,0.21258973189456126,-0.06966047027384188,-0.03938044754680096,-0.0036683156610466446,0.0018070451945988233,-0.01932514366020849
5.04,0.22302941150669983,-0.056188014578587527,-0.008358890529439441,-0.01046748682791426,0.006683497232188641,-0.021157653356608363
5.05,0.22528715725975743,-0.05973923922459072,-0.08216287004959229,0.00744573949084949,0.014188434000153603,-0.017503207983895912
5.06,0.21511413907455118,-0.06677606088324568,-0.10240157968907046,-0.00810334647392315,0.02896948890540464,0.0017076529126478363
5.07,0.25440414606210177,-0.05488006209908609,0.9189432731361895,-0.0030866614376893905,0.011320405054119525,0.004714572315488864
5.08,0.21210418105413636,-0.06566174389327065,-0.08536817131100496,0.003953526463864149,0.003508145716436697,-0.009143794520583517
5.09,0.21173669684703508,-0.07405382938282692,-0.10575632805756369,0.004039725016442215,-0.00032487110008661,-0.0025190107954807753
5.1,0.22171486803672422,-0.059210083107772656,-0.10954043105993333,-0.006977977855029191,0.01671422770256287,0.007632919079578392
5.11,0.21960539693322845,-0.044848844873468796,-0.13754074602184124,-0.014966777644720378,0.005888684141023164,-0.0004387513998253328
5.12,0.22974400764259978,-0.058024640396316204,-0.03852685475942535,0.008364820165975801,0.017009992057409478,0.006562073741972542
5.13,0.19594618990445317,-0.052255610153850246,-0.07469897673276332,0.009132824714280553,0.014509967051690841,0.009363515946041099
5.14,0.21905741129003486,-0.06988630865853507,-0.08859277171938826,0.0019602422562711567,-0.0012511248226448213,-0.00028775746234725513
5.15,0.2232337103571923,-0.06064912404128096,-0.09204295304295668,0.01977694285211792,0.012771524153525896,0.0037178104275932427
5.16,0.21078889859761252,-0.04534462293310115,-0.12384920321065618,0.01913716835599914,0.014335625207569659,-0.003314393073862572
5.17,0.192893205041897,-0.06823554160994792,-0.029080812924360405,0.0055874561719648375,-0.001911318869690406,0.0006537707299541369
5.18,0.2107128193495552,-0.05598668378237075,-0.046570147324003705,0.005854694381684247,0.0063653254810277,0.006795899922548542
5.19,0.1879800984196822,-0.07457296536003905,-0.07583259599392142,-0.0005768402271421969,0.015453321959858109,-0.0037857201164982657
5.2,0.20319207308397008,-0.05880549009424759,-0.07566233764061746,0.02830222141103958,0.01048071956917145,0.006544454911739063
5.21,0.1853046205986292,-0.05505590991033887,-0.10911845420125998,0.013195592178680073,0.010612220201079959,-0.00872862004891481
5.22,0.19939658068729393,-0.06735352990805155,-0.13035898450697134,-0.007955969258767468,0.02941380419157351,-0.010483078958405579
5.23,0.20772495274922598,-0.06415885237926822,-0.06351324193565136,0.006749066388042098,0.022385936514603234,0.0048401929744106955
5.24,0.1934607329124135,-0.06906233140927909,-0.3400169640515447,-0.007074120740453487,0.013855723399331582,-0.01372482225690472
5.25,0.20646406667540057,-0.08156621621480116,-0.08471232154092324,0.0035141032500377164,0.019152281975373234,-0.005784874693723265
5.26,0.17650570971802015,-0.07335472104445145,-0.099299566481109,-0.003583812099697151,0.01833604338980367,-0.009973201680121887
5.27,0.2121223497250803,-0.07978181798680448,-0.0020152554604990756,-0.025300410261979867,0.006951579378761821,-0.0008786875085078838
5.28,0.19060184719350154,-0.06455458144203552,-0.03552868671384679,-0.015715842327017865,0.01312782717308618,-0.020818196373775272
5.29,0.18338359519426134,-0.07773929364238785,-0.052601737499107695,0.015102491884326143,0.022082134504647966,-0.00557421937039334
5.3,0.20320396612594915,-0.06264852348415943,-0.07759515998505899,0.00825224425304306,-0.0101600386754201,0.02289007905759903
5.31,0.1685472824128554,-0.054439142782122814,-0.09123515990122108,-0.004339855568882804,-0.0024327336586959856,0.01687532475244828
5.32,0.19679268883127368,-0.058088862559418114,1.0622538864058788,0.006907482091419457,-0.010443824635579723,-0.003644325795552357
5.33,0.20918844376329615,-0.08107901568583177,-0.08866840452961347,-0.011749316634911477,0.009412858999939294,0.0172172729934793
5.34,0.18956699088853052,-0.057325421731205146,-0.10501232929728048,0.010076060534627935,-0.003621305264425512,0.013689615968586217
5.35,0.17617479649249015,-0.06562801017640753,-0.04700182766047374,0.0005961325976367455,0.005388814927931096,0.006850322433696792
5.36,0.17558003372250788,-0.07157317484637822,0.06480016380101832,-0.0013459726050573956,-0.013927570005968056,0.006083929231152254
5.37,0.18472056551162955,-0.05223307180356174,-0.0447724045776589,-0.012179922988161184,0.00833707109163067,-0.004915901392727579
5.38,0.18237104648631908,-0.0668163398916363,-0.08111800517969889,0.005110039489704069,0.011225405040905315,0.010347832648833502
5.39,0.18603756338009753,-0.07591044872592537,-0.07475302046025875,0.0024752256958070276,0.024148386995950757,0.002260874932595655
5.4,0.21091866264412645,-0.07070401272181157,-0.07725602486194245,0.011620435036523317,-0.003519246685844999,-0.006035476222281388
5.41,0.18137291385827417,-0.062184874300304956,-0.09804145729832608,0.0007876617938750484,-0.004213542253612626,-0.004409616774172436
5.42,0.19074063371205585,-0.059802704456314304,-0.04980703198783845,0.002647953884225028,0.009960250216646194,0.008675042492976825
5.43,0.1909343361402302,-0.06426784876961215,-0.07041657587800365,-0.018946560779004525,0.023763666007201124,0.012027833021010797
5.44,0.18602843285013096,-0.07567807123585335,-0.10179832056318297,0.0003631249953683722,0.009410379413819983,0.012165183134599139
5.45,0.19806976037226562,-0.07358307618784146,0.9229192563130214,0.011979585599785375,0.01069995668613096,0.004659091425557529
5.46,0.18213242862433474,-0.0732931987710707,-0.15348874135480034,-0.02328820453424337,-0.002005839445269755,0.0013512721393702284
5.47,0.18231619864308124,-0.06939277992014987,-0.08085199363289845,-0.0030133421222456776,0.00015249536977129333,-5.330919144476594e-05
5.48,0.17317789753305116,-0.07669127114862917,-0.08250896056601346,0.0028084314827578234,-0.0015913592610898655,-0.003111417560003886
5.49,0.19115625504053277,-0.07505717796709416,-0.12028129691197505,0.007088533166359474,0.0083408309208466,0.0035804017265802174
5.5,0.1653718252552008,-0.07511560820636212,-0.1271748695903755,-0.012297536228917575,0.010375421826746497,-0.010088324628232517
5.51,0.17449120368750345,-0.06656905271440781,-0.14326520727981962,-0.004808473587067061,-0.012837392006301698,-0.006397781178023484
5.52,0.18117157202507436,-0.07955456202476827,-0.05433325813911455,-0.016535834307059044,0.007948475337409718,0.0015017434506173371
5.53,0.19966059493763164,-0.06557045361451756,-0.0842399764125137,-0.0013635877790353912,0.008668194407567574,-0.005895428337368926
5.54,0.1989287756151208,-0.061954478284339115,-0.10443685137822153,-0.003888674870897648,0.022950701782692828,-0.004687845607053098
5.55,0.19076752879298617,-0.03451179115368187,-0.0885332040820824,-0.014629694279172177,0.004817336727606853,0.011648770904483102
5.56,0.19443354220288336,-0.07196668370027519,-0.1393148697992251,-0.011983960717615965,0.026457064530552923,0.003698285815127874
5.57,0.18456034996388213,-0.05007441779085271,-0.04507835521172497,-0.012282428586097006,0.011814081119341967,-0.018648789022304112
5.58,0.16630027742295328,-0.0772229572162779,-0.04968372599113272,0.005390564289650178,0.009404921476280335,0.0012098358931680302
5.59,0.17834419318679404,-0.06899817984663571,-0.08943625076146171,-0.003269080297807714,-0.020208757725158864,-0.014602906967373845
5.6,0.18168127342463958,-0.06291860046289682,-0.10104480026225955,-0.004996325026963336,-0.0064328654700893,0.01281774486735514
5.61,0.1514141342033659,-0.04567455560669694,-0.11487213155464765,-0.00040293955864581336,0.01358314404651641,0.010934101387149552
5.62,0.16379541625638042,-0.06658547292438034,-0.026318123874999218,0.005190297875094382,0.00989822808283869,0.003426054553284743
5.63,0.1705232882429647,-0.059755087689360664,-0.48546412055329236,-0.0032769427604741764,0.011674531996325224,-0.009152510798708099
5.64,0.17523633189439788,-0.04851499904462175,-0.06704643786423724,0.00010711458065214405,-0.0028027272344828607,0.0009411022924773317
5.65,0.17606989925801067,-0.04887702160237253,-0.08415063676944304,0.0009485341704918605,0.01752988872758326,-0.002129814626736847
5.66,0.17476974422739108,-0.05595769360563107,-0.09391507709528779,-0.004891714703860988,-0.006032451037913435,-0.000285171291882479
5.67,0.1743813852667562,-0.05364132438918053,-0.00441685910680387,-0.005389860397045025,-0.012075403808520086,-0.0145970566986602
5.68,0.16218929643987356,-0.06981493802167649,-0.0363894993102387,-0.000517699002320177,0.008199453894218743,-0.018082137278045654
5.69,0.16100473998720202,-0.05770264145028265,-0.0812097402422046,-0.018808178314216946,-0.005441775889126538,0.0005045942371692804
5.7,0.15603644272920228,-0.06146931182835813,-0.09016069077377126,-0.009526040262790553,-0.011313111578451308,-0.013621492098306463
5.71,0.15184037062932765,-0.06698488082697591,-0.40772714731275134,-0.013147802138593177,0.002204709952349772,-0.00866893208969925
5.72,0.1727299627725474,-0.05695297742206586,-0.0039293011752365116,-0.0052287902460512,0.017328025229702428,-0.009604263952397692
5.73,0.15223568948237956,-0.0678227166998666,-0.031027231830835122,-0.005059011462101781,-0.0029997718788482594,0.010287885523715207
5.74,0.19297601670476744,-0.041650452145858156,-0.06786585676991357,0.0009161044390254419,0.018018380773088403,-0.0040300943658058835
5.75,0.16916194565968187,-0.06256695560129914,-0.06670975331553888,0.008360987081339394,0.0032889544478419625,-0.0014282694154780363
5.76,0.15553762956434342,-0.06453270224652237,-0.0806322625072067,0.009988946880036362,0.01071100997628593,0.0007540094715020283
5.77,0.162129168925852,-0.04629309552385292,-0.0284013675128755,-0.0011993921972940358,-0.002622948632906713,-0.0072228758379422105
5.78,0.1679570863505036,-0.053750703927250065,-0.04175829217825201,0.003793854701636612,-0.008103896337248713,-0.022616794562677213
5.79,0.1820010816901772,-0.0377704506404864,-0.06758099148673746,-0.006630740505085858,-0.010567047257440025,-0.008199326207470478
5.8,0.17054553625996768,-0.053421342344797,-0.16310234507164778,0.005832737728104662,0.028116215012553313,0.0007701822777757385
5.81,0.16398388851056556,-0.04711717088829218,-0.07673618448767382,-0.01746221592849931,0.028933563148083104,-0.013255287422285975
5.82,0.15628625497583443,-0.048129625603639196,-0.5851284221737937,-0.018111758598241268,0.011557533362494788,-0.012929190892410621
5.83,0.17609659701736793,-0.03989463216012229,-0.33750072785134544,-0.016092435706145304,0.02007046450073476,0.003111346674829806
5.84,0.16907437643364942,-0.05672850488823533,0.014195668331856509,0.003894944803513602,0.0161218619336038,-0.005678799800927468
5.85,0.16925055014343865,-0.03600700585097016,0.13429798376287228,-0.01099521047689182,0.010454085877926605,0.009517885138785683
5.86,0.17249670690619517,-0.04452015308897464,-0.039914783649322744,-0.006684831218115321,-0.031220212930959362,-0.015786232787470746
5.87,0.17031818356413495,-0.03964879637602364,0.03324943608738131,-0.006413235285946669,-0.024281306891207055,-0.007813581635022129
5.88,0.1537675569415045,-0.06501333873837296,0.0030989658604918795,-0.014101326962378957,0.0037727499941521674,0.005001518629684725
5.89,0.1771077081118621,-0.04623095572581671,-0.03919351416606551,-0.016618472514797825,0.005385664510209489,-0.007995352563614323
5.9,0.16331266229826255,-0.06074496760709258,-0.06770972132155924,0.017908467649164397,0.0182468548203031,-0.010437928028781376
5.91,0.1686261679369506,-0.032269189331781606,-0.05535218885882473,-0.00795478161414458,-0.03354952797111893,-0.013657877123275689
5.92,0.1775297829682169,-0.02753005687578525,0.5009085449805297,0.0017838515157865553,-0.011857951248983424,-0.012158763119321356
5.93,0.16468505319060273,-0.06040769704386295,-0.02761183174782708,-0.00707167246511175,-0.013132177345821066,0.0029423552614067346
5.94,0.17267061368311024,-0.04220700753820811,-0.045523353978752276,-0.009326266383164583,0.023619239269727824,-0.015706077994698926
5.95,0.1743108391476399,-0.042731998827808,-0.07445497630737995,0.00850971327030396,0.0036320982553218334,0.00010697219907562956
5.96,0.13902684705562654,-0.03552186729843831,-0.5470980656502185,0.013152708407547392,-0.026304342313472215,-0.011024590043999014
5.97,0.16890720176640148,-0.04006942226587304,0.008489323697718158,0.009638925388573154,-0.016246171217871648,-0.008584092333921125
5.98,0.14466570334985565,-0.03729333427970343,-0.4720932175321041,0.006474897640936266,-0.009658150631254287,-0.026794593797255933
5.99,0.17660013536594515,-0.05028467611883186,0.011889949974703053,0.0034188852882667733,-0.007582655503090003,-0.01729496822585548
6.0,0.1616608649171532,-0.06248781196407149,-0.0206910642776725,0.01535003503137721,0.00817695290803311,-0.008168677392737567
6.01,0.1721570484012152,-0.057597694112607366,-0.04768586490599696,0.006577429526557262,0.005994855581821189,-0.011214391858096303
6.02,0.17086318244839796,-0.052988453523839636,-0.054712745978284044,0.022099721179451835,-0.010650398657663675,-0.019333777502940554
6.03,0.17087967052268266,-0.056196855889105335,0.0009807044129616655,0.019836525764028893,-0.0045492263779754825,-0.007638336288030582
6.04,0.16321957085760744,-0.03732825534928037,-0.6727180355050304,0.005016374284688734,0.00440774373862974,-0.023260652397479275
6.05,0.18204329083644352,-0.04808386433998149,0.010124662775182291,0.0030990355120257204,-0.01873134628784131,0.0030381456487282073
6.06,0.19006549743453313,-0.046243151454493495,-0.017353375705270832,-0.0010995517098821724,0.0017398122300816216,-0.03559093350131161
6.07,0.17323757663598266,-0.041814612215361605,0.2626570398907556,0.0017980989719114699,0.009180410142252888,-0.02151300182957669
6.08,0.1847753185881157,-0.04242942961438119,0.012745734117901808,-0.011666121745947666,-0.008714882065757292,-0.02743262009862075
6.09,0.1780877011269838,-0.0566074137358256,0.007893746222071148,-0.004846588922272729,-0.002657968284151685,0.0002924753183436192
6.1,0.18976581497610978,-0.041103195939105636,1.046825222914208,0.02256582577015827,0.02095193438307274,-0.011357132278789192
6.11,0.1856218665645951,-0.06245496452580891,-0.10091025658924564,-0.005774348424768743,0.01428955119311349,0.007478985864915199
6.12,0.18639127259548055,-0.061745031287669144,0.16298496407857835,-0.005361597081515228,0.01086638635401361,-0.008925189887916185
6.13,0.16271772580047988,-0.053099811772341104,-0.02671318638123602,0.00732244226021896,0.008547058942382526,-0.008519184437485408
6.14,0.17466419529546545,-0.047896517568131854,-0.06140261934397743,-0.003524092279851335,0.007639681445731444,0.014865445987467803
6.15,0.16924611956692098,-0.04958185640539845,-0.080523394214119,0.015496776806966494,0.007076139267988215,-0.024445545328281342
6.16,0.17981477808665286,-0.044382299429426585,-0.06584607623119772,-0.01441124948417401,-0.00882900550460168,-0.011276391020578286
6.17,0.15598421753919975,-0.059529574629840494,0.5198601304336692,0.0212358486080389,0.015707596052171025,-0.015109508662867527
6.18,0.18008490412181596,-0.04426260136031711,-0.03859308874546762,0.022637277314382993,0.026030911367678197,-0.006938596478023256
6.19,0.1712993225346462,-0.06380575645018959,0.2893345929631902,0.003852399081651931,0.021447703325440774,-0.009105989861100278
6.2,0.1806800884487979,-0.059207885980151274,-0.008120665355731839,0.005441666851728394,0.013411354720418421,-0.0036739331338110468
6.21,0.1443470414803137,-0.06763565985233401,-0.11061948664360749,-0.007035695626661756,0.019434835118552783,0.017141719396941126
6.22,0.1773733364441619,-0.059295228458226934,-0.034723881974379256,0.0005985617320624706,0.022282705104474533,0.015438417634913968
6.23,0.13724401608990905,-0.059570951328028705,-0.005013460762203065,-0.017415217545534177,0.009281035317437864,-0.003004340000186919
6.24,0.15156730890684778,-0.07154811978600915,-0.09970231513237414,0.006039155226302849,0.011934282860091051,0.018155703574612075
6.25,0.14956317875256733,-0.06766701113999121,-0.07545792628300259,0.018817177763041395,0.012461111256399414,0.00031515908477240933
6.26,0.1621347961740816,-0.053141700253472486,-0.10023287906097195,-0.011727758313308308,-0.0030905743397930804,-0.0130585437052794
6.27,0.1582711950527289,-0.0399392596754075,-0.013238935217994505,-0.03496255412719835,0.013866783583128574,0.019606694799359652
6.28,0.16697826303509752,-0.0429093679674436,-0.03657178335995529,-0.021872029647053686,0.0072734375973866824,-0.008671001151580596
6.29,0.16066228010918931,-0.07742003732679126,0.4370039597940021,-0.01274064951799437,0.008326236172959085,0.006245191877230232
6.3,0.1561361078718455,-0.05925473854767983,-0.08324449881168852,0.007710715540055726,0.01256563230212659,0.0005209634773273765
6.31,0.14002366901880767,-0.05857566166718211,-0.11549258446487987,-0.011920974797388297,0.001236576145776676,-0.005837910825082351
6.32,0.13855621513069832,-0.06265491136120188,-0.051665497680129194,-0.009082534699045882,0.008704694435963629,-0.01956486716132151
6.33,0.17169006216201776,-0.0694359906490069,-0.06853841170149778,-0.018287401683730463,0.0208487620583416,-0.001598836718352758
6.34,0.14119394707247038,-0.05825981179617268,-0.08440043986519463,-0.0048915234849854754,0.0026952494692804897,-0.004210297854784711
6.35,0.14066163897053377,-0.05042099937699511,-0.0837519614154321,-0.011626868453519757,0.008077983908673744,-0.004538653100691254
6.36,0.14854165605724215,-0.03451649293378205,-0.09532706714289314,-0.00298827802538551,0.008557987520926852,-0.006851685215920571
6.37,0.13840849413293602,-0.04992195230336814,-0.015412907842699174,-0.014924255023668632,0.002076106906918568,-0.0004539173452481817
6.38,0.14477633739940418,-0.05684186933441694,-0.03150520796540923,-0.01646243919289643,0.005373074373437446,-0.014439418948220331
6.39,0.13291500729065814,-0.04606193947309048,-0.07148494137426577,-0.02226755532685154,0.016173820999765318,-0.00995010971607489
6.4,0.1570087488464407,-0.032223207962943735,-0.08849350114212223,0.0012243192481417265,0.009287007689663434,-0.008569393280888616
6.41,0.16001105799627216,-0.04543959999606546,-0.09461013678495121,-0.013313964226673391,-0.00950323664770003,-0.005676317965425316
6.42,0.13375080430306222,-0.03457607298749907,-0.030901490851038185,-0.0065094015525173675,0.003522586423701875,-0.007982136601990398
6.43,0.12394878661758045,-0.04453667964927883,-0.04880278547973768,-0.000887148998368603,0.02326612317640705,-0.0031851773274174065
6.44,0.13384397329415523,-0.044585092697447995,-0.059220801615150274,-0.013513966076605594,0.008702998339688794,0.002226886382912085
6.45,0.14210029857353906,-0.046408937275752585,-0.08667867216481684,0.016050502141096663,0.00035357741483616097,0.0004140750524980145
6.46,0.14706342879237502,-0.031293115709551345,-0.07614422376779117,0.008389732680722455,0.01822762530459973,0.00923093138171707
6.47,0.1443628175916774,-0.03361936463331213,-0.03996687449430078,-0.003757299839227391,-0.0030349859548503113,-0.016592933090126657
6.48,0.13318012238576094,-0.021864030613334584,-0.8500612130665632,0.0010927129136828443,0.004501269644727218,-0.015528391652413001
6.49,0.13642859531268325,-0.03315658364461965,-0.02767611321327393,0.008019408788078981,-0.0036558463123988333,-0.006359227406752512
6.5,0.14118302858794926,-0.049105345992832984,-0.05803136797336962,-0.004107973421373946,0.020765692128939642,-0.004670014704868277
6.51,0.13487792326715348,-0.028272458816721815,-0.04643732431906881,-0.021149623688446924,0.01262536553528459,-0.007802328678729783
6.52,0.14159138598948953,-0.03958599486886279,0.0013400791548621267,-0.0026990117141166767,-0.006265041790013863,0.025239177285039112
6.53,0.12211957212773503,-0.053380124841397786,-0.017016701320600854,-0.0012512072819494393,0.00011855237425640198,0.0004615748940769611
6.54,0.1387940350279532,-0.036387460305979426,-0.04877576459400866,-0.0014626435329805037,0.023235839691723645,-0.006013993350135345
6.55,0.11752310669762063,-0.037781042262826726,-0.0591280745280563,-0.0020801607046337517,-0.0020097126693489533,0.0024633019151770173
6.56,0.13898701255612708,-0.0358367245384453,-0.05850611981662373,-0.0018984084138079105,0.003476311625814799,0.02024421029354172
6.57,0.11953587431414343,-0.04884004425324779,0.019554841261028903,-0.002877918257020465,-0.00033387549682014185,-0.004935688028310695
6.58,0.1515304696643362,-0.028577494713137155,-0.038189938152211486,-0.017983619614036772,0.02265020059576839,0.014406280584766918
6.59,0.1328273788452354,-0.04575801290651936,-0.041456824360805826,-0.005835049820160893,0.026751229737395806,0.007094229989235324
6.6,0.1522987227782802,-0.05656607078350107,0.9293821132849308,0.01555626258503172,0.010647248641030968,0.021046378101056442
6.61,0.12465823024356044,-0.03511825340684952,-0.12914322286573793,0.000818363713800665,0.01625584294319394,0.025189782191238602
6.62,0.12363939714435926,-0.02846742390080664,-0.8425889478523385,-0.018521864558813265,0.01410794325910233,0.012484460978535896
6.63,0.12743460714919583,-0.039203487441353956,-0.23696657296399548,0.02585085785447643,0.023507925093676975,0.008160590969929306
6.64,0.12380042194100406,-0.038632983500571115,-0.0331902151927625,0.01572381740395987,-0.007503464160177036,0.0027984279514837026
6.65,0.10796173879308488,-0.03595691214777408,-0.05462465112439991,0.012245731165904633,0.014827952865958793,0.014204734035988497
6.66,0.11587136103609776,-0.018770633067660594,-0.04551440283436114,0.0034746255612237847,0.002982155685411417,-0.0003830025767898957
6.67,0.11103991030705614,-0.05327896699023078,-0.667259975794561,-0.008662615372084983,-0.005167139971739457,0.017173568240398687
6.68,0.12708809477019828,-0.04254233325474675,0.00484414145326611,-0.012843871194038911,0.022655701070022106,0.002168288646470793
6.69,0.1173244302034071,-0.05478802302539166,-0.1385021269140679,0.01178497403818376,0.01133847730202834,-0.006151955698087435
6.7,0.11988912956936504,-0.06140315872012056,-0.23836933746425365,-0.006991975054355573,0.010587328727149011,0.009735766794789784
6.71,0.12006227934000505,-0.044845376523367134,-0.012778528119215099,-0.015235956577348487,-0.0016388838445725365,0.002997307144008184
6.72,0.12198770944482401,-0.04236192597603372,0.036430654426543356,0.011648344954027213,0.003147029322826355,-0.00021536445308245524
6.73,0.12184529914400355,-0.05023406878026567,0.0003954851676222816,-0.0066116195797927355,-0.006697745601792222,-0.006075760064004238
6.74,0.12393961840623831,-0.03244124277592905,-0.007602099171380083,0.011618366370098424,0.010011070522337621,0.0020489662221431105
6.75,0.11646252983599112,-0.043631958597725076,-0.037638752697056035,0.02465174722555638,0.005997915326037316,-0.006202650520655193
6.76,0.11155553839862836,-0.033330951181288856,-0.02175347359922722,0.0009607774542953361,-0.005048842773141033,0.009377198379738473
6.77,0.1226069294114563,-0.03728403002091926,0.2129623708175314,-0.005866344256436379,0.0069436196472903835,-0.004320090301923486
6.78,0.1106076239622683,-0.049840948705839626,-0.0026955555350850003,-0.028137374888937947,0.0023450099964189425,0.00345230622035978
6.79,0.10772132182951659,-0.04360670018384699,-0.012511391169422017,-0.011305893518379153,0.005841606471567783,-0.009224595661268166
6.8,0.11343000499708725,-0.05673455874294703,-0.025394184833683525,-0.008381432151053445,-0.004531163010774979,0.01460962849406016
6.81,0.13528794398815597,-0.03207787338347415,-0.0588080803121346,-0.015322478032944925,-0.009914264871044048,-0.00985261139492982
6.82,0.10381000963382174,-0.04047602075067344,0.026067735131778427,-0.009087796743411796,0.0007382259102669802,-0.0030942952188287775
6.83,0.09199499631386407,-0.05008492300612778,-0.001937755838119358,-0.008619835847106672,-0.003346195361306108,0.0032945053286199417
6.84,0.13156470733946418,-0.04454511420260321,-0.03653653117646044,0.007923591680103183,0.02392521375013647,0.005937153102706413
6.85,0.11630629062495308,-0.03602644684269969,-0.03875621341523862,-0.009590404662247327,0.008657598431317148,-0.002992604291160399
6.86,0.10556666794879693,-0.029312352632272092,-0.05243035587231708,-0.018909634847815094,-0.008008834786708956,-0.006743455028520413
6.87,0.13714530296295907,-0.03300437436272921,0.022496544706868078,-0.007349781306302731,0.006040555550661276,-0.0022558510729520195
6.88,0.10365669404678643,-0.01926084204004934,-0.00827145002876117,-0.027790050020017984,-0.004538253013813437,0.0006707682967920037
6.89,0.11487695521846447,-0.02715253012998993,-0.009576497219149702,-0.013808270669561879,0.009372647309243445,-0.015361877438507976
6.9,0.11759243354966721,-0.030902412385636915,-0.04236823254176047,0.000546901306428258,0.012206223726843855,0.005329452764593654
6.91,0.10532875941097164,-0.04288317912375439,-0.050295540315922205,0.02512005371467075,-0.0015929293685522268,0.012521737712896618
6.92,0.115905505969263,-0.033406932356012345,-0.6298640852918082,0.018784045406255914,-0.0017395266300671592,0.012164731731642633
6.93,0.10472390126295453,-0.0098931322328987,0.03777642889128559,0.00780685752294748,0.018831339079631578,-0.0033558847466025536
6.94,0.10329831155211264,-0.0192713586642407,0.020843115466730174,-0.009825520024566404,0.0042086432377334455,-0.0009359914541211332
6.95,0.11216653889297339,-0.032979768492106924,-0.0033383145101818206,0.0020699163051563895,0.009258347106663107,-0.008450449981972058
6.96,0.12494479571540136,-0.03430070686937654,-0.01580658471622389,0.001352184935428876,-0.021917427447339162,0.013893785178803339
6.97,0.09537058614052843,-0.03966709368182709,0.09608854153471234,0.004451536773627525,0.0031476106661751223,-0.0019859415092614327
6.98,0.11015658177430639,-0.04167034872725215,0.293897576522655,-0.0061776635470674095,-0.0057344964287770845,0.0062574299936413325
6.99,0.10698720251607356,-0.0394065886003525,-0.023447183777008322,-0.000836418358467983,-0.0026032860902467456,0.0010483969511197674
7.0,0.10108122904199131,-0.029138694110525217,-0.04808614267460762,-0.006918366980963695,0.008520710493127283,-0.012373346113938375
7.01,0.11011258983148726,-0.01311470972792916,-0.057244056526223566,-0.028362362753910842,-0.010312665698896934,-0.003252938863527321
7.02,0.09150273981518253,-0.03613070683069272,0.0008358854165074758,-0.010606457245418944,-0.0025607992400802438,-0.003538914710991883
7.03,0.10458721318775203,-0.018994621128338433,-0.00648589398447509,-0.0028641167779915946,-0.014604451027927227,0.0012783413958043408
7.04,0.11016873128230494,-0.020458827959189567,-0.050055564896872934,-0.00385108131903787,0.0011645155741293568,-0.015068346016658702
7.05,0.10953973708026446,-0.03797029538858859,-0.050166404358013575,-0.004429029704214814,0.008311013443447934,0.0074410705283378354
7.06,0.10008388788894614,-0.04066033903407298,-0.05308403386171539,-0.008413764810125134,-0.007169089716035919,-0.005685413044264473
7.07,0.09707825800434927,-0.026335224277286805,-0.10278104687422171,-0.008524237219283932,-0.0008170364843870597,-0.0028076338253072673
7.08,0.11993586994349617,-0.0010863267855488155,-0.014052714159688139,-0.008025746903425527,0.01781236245581027,-0.015140524508402815
7.09,0.11637856937694455,-0.023071900438178892,-0.016057787749321317,-0.01550162127924724,0.013860606776639835,0.003244626004955219
7.1,0.10472814636431783,-0.014882652126696063,-0.343500765683133,-0.0007243293084512178,-0.004302131742722756,-0.0016967742890978614
7.11,0.12037201338598119,-0.01348370173500731,-0.0375700332317522,-0.015252056957702471,1.6224433706787077e-05,0.010046387090777587
7.12,0.10472615802795748,-0.018065796881225577,0.03463080337377655,-0.003491499534022031,0.00274357075133145,-0.0022958302191375675
7.13,0.1050238102896744,-0.02696111019647667,-0.0020313984537128653,-0.013455380451556016,-0.0012432257394087232,0.003704220254097742
7.14,0.11966799199389985,-0.027491400677496523,-0.018660011676622405,0.012644653605835936,0.00702444107692831,-0.014599930694575004
7.15,0.10409244620739046,-0.03905459281756733,-0.0155488727274323,-0.0006225968377057523,0.002581691571820661,0.014938613999171903
7.16,0.11702791561784745,-0.012409818377317283,-0.04266016352058724,-0.023374385935548036,-0.01335540879681283,0.00999308919819433
7.17,0.0981331468261987,-0.01126815184229863,0.021227290251144094,0.007937510589986813,0.008894108442336094,0.005639892488028249
7.18,0.0814349864681429,-0.03377278247022458,-0.5049258886045457,-0.018512015405608616,0.005072231506718548,-0.010707896789157076
7.19,0.10077825689934236,-0.016737361966128364,0.009712615682678505,0.0010422167727589878,-0.015206885743364304,-0.005610193900507373
7.2,0.10540612276637669,-0.019828253875085564,-0.01807524239911835,-0.022915457385469084,0.005462229382602874,0.005166830023724845
7.21,0.12251714449561707,-0.003787373356686769,-0.036881067530080844,0.00412191181731467,-0.0026065941936587005,-0.007450001920276807
7.22,0.1118763970676351,-0.004592660321400249,0.1362888862192161,-0.002738972983628075,-0.011363874831962145,-0.006512046088388079
7.23,0.11467917436814712,-0.01996763015612179,0.0006093179112973946,-0.010531927200294016,-0.0004923772744504173,-0.015673714938533624
7.24,0.10607848420792207,-0.019378027825837172,-0.017242911559654184,0.002428248448553342,-0.0023118961221609085,-0.0006464800177371315
7.25,0.12215424160455803,-0.006481059802717375,-0.006896486715966613,-0.009989480787812902,0.02608339232469177,-0.01139987956711546
7.26,0.11251788690796742,-0.0008679162737936924,-0.04788935519730895,0.0031992354437129942,-0.00016643505807188534,0.012136232340202679
7.27,0.11206456904153972,-0.026286461371761674,0.03449465228510487,-0.04280713697721833,-0.006164617741808345,-0.0010728854370537855
7.28,0.08845189553249255,-0.019864190471949515,-0.000984309413240167,-0.015796815247292734,0.006958437310340268,-0.0005452032944660203
7.29,0.10301317297412209,-0.0009603339187109865,-0.009215608263869059,0.0005855823847175772,0.018493024605876165,-0.006576336222794869
7.3,0.0970584124603107,-0.0008581849420406353,-0.03719128334268416,0.01101839289605751,0.017545093477451257,0.0076768920618914705
7.31,0.08754610685908382,-0.003447709218088791,-0.03268003995238097,0.014912574356136798,0.009486890340991993,0.004951800567789723
7.32,0.08591049391350697,-0.020118398034107587,-0.70725278741558,-0.0040967283633083695,0.01525215455501842,-0.011668862270613974
7.33,0.11457423329270588,-0.0010989989285824795,0.019098681090096156,-0.001350093814051722,0.016807353144413978,0.01601162718028132
7.34,0.0965685381543311,-0.005038088806651571,0.03189615713506075,0.0018772107332089647,0.019349928573591343,-0.0033519973649106375
7.35,0.0958285790493909,-0.02163306270467185,-0.00698287348174636,0.009334599123542424,0.03398296901087523,0.000950247525730156
7.36,0.0814621869625212,0.0014706652672627184,-0.018495036702633843,0.0015573150447417364,-0.003990744081114113,-0.007420293291554334
7.37,0.12028273826594654,-0.009905819007999452,0.05458343204393672,0.0027833294248166326,0.009351317537630221,0.022144525296341793
7.38,0.0942614522827678,0.001961186396321318,0.01103637662454483,0.0005106981139188027,0.015052991129449675,-0.0084470424076755
7.39,0.08104545924549154,-0.021400871956854348,-0.010544322201016544,0.0028877758172735557,0.015189912291974101,0.017879695131337404
7.4,0.11009991475143778,0.015622992253216953,-0.02785636207066828,0.003729967011194368,0.007079417363171477,0.0036670263543895276
7.41,0.08521198589670345,-0.015096339871994007,-0.025519780857846244,-0.004700443719195804,0.009816721694643132,-0.027040743331415155
7.42,0.0844091751784832,0.009520637564023184,0.019054470074513052,-0.0037093190422505867,-0.0031220202657592806,-0.01374262559049005
7.43,0.06656181295401409,-0.015621022301321832,-0.010253233219646558,0.004215484580208598,0.0032814440535138935,-0.0035055658911949767
7.44,0.09290514018984596,-0.009192107431403774,-0.023983886304690116,-0.01738217937992805,0.03462393173195949,0.011859949333593519
7.45,0.09090963284828316,-0.01906574707485789,-0.01261255832712665,0.0011006695147449414,0.022103428326114793,-0.011783912507859422
7.46,0.12226413151342977,-0.038241732376040144,1.144531748533197,-0.01317938155959283,0.025589916103997634,0.000614256482858527
7.47,0.0875229147762154,-0.007923767513995343,0.1532024196101809,-0.00034678696266275135,0.0009111783622973322,0.0032405493199612395
7.48,0.07824286995629197,0.004191240280667936,-0.056621750727562085,0.0035569945399640864,0.027650493140690516,-0.0018200578203236713
7.49,0.08390855937152476,-0.006114553802082905,-0.07524737315755817,0.016780168692750723,0.004726762075549226,-0.0047579902868975935
7.5,0.0743934738158966,-0.006921296398386093,-0.06427380109658119,0.010212737912115733,0.02459956581621176,-0.0063729126376450215
7.51,0.08780657205367232,-0.0009692829764010253,-0.08547034900024579,-0.022666666871871535,0.018243342485849554,0.006456657052902442
7.52,0.08497988140077858,-0.015062051875761253,0.12933657905236115,-0.0175218297323712,-0.0054455468699409135,0.0005522261628458985
7.53,0.08205843484963558,-0.011035464277045194,0.41834449619464725,-0.012839272091864865,0.04053367722664032,0.009134967554096582
7.54,0.06615803200208067,-0.007274453366002795,-0.083694548807731,-0.004591338509820404,0.05687454346646277,0.001361665810492461
7.55,0.08814398883031328,-0.01349579599877527,0.6513936436757882,0.008174786367611254,0.05118766751245572,-0.00019822107850583047
7.56,0.0883308701372809,-0.009262065241706953,-0.13463453388298172,-0.016017901274054815,0.03511232896097442,0.0037656005018097197
7.57,0.08021165960635011,-0.011829621639961579,-0.02084379401942687,-0.012275678269244724,0.028885748645847743,0.0035243251132457977
7.58,0.04599746274156838,-0.014171849205061298,0.1799144900867589,-0.005618504485139319,0.002374586978290266,-0.012387390671328793
7.59,0.030851584108683196,-0.007584041024838161,-0.09879109884276442,-0.017561218960849875,0.01875499546879715,0.004280320794620814
7.6,0.05892623726689735,-0.009359639059157368,0.45234042380256745,0.0032340246725161064,0.02620241007376252,0.015364773534686528
7.61,0.040509035879839506,0.015013160697198921,-0.15471549687671862,-0.009897427757121238,-5.726030044737873e-05,-0.011975869753665026
7.62,0.029352910039953613,0.015043844712343591,-0.8441197715034738,-0.007473655794432686,0.01863448396233648,0.011067169305392257
7.63,0.049725944763359044,0.008253651358490795,-0.05855258558547985,0.015483014175519689,0.00010786450834207855,0.018348796674556675
7.64,0.04959841390742257,0.013829612328746094,0.09600222560457061,-0.008497304301105128,0.016027411236465325,0.003510291049541228
7.65,0.04102951345445085,0.01181413900367431,0.20122661569542977,0.02634390880533655,-0.0019894993331600243,-0.020635116029750933
7.66,0.05432553177021136,-0.0105091195794684,-0.14150776226048012,0.0010185050552440414,-0.014348271342090874,0.015884280569494813
7.67,0.054499706249978824,-0.0007217460642381908,0.11594724310476057,-0.0038570087633912203,-0.0027122057034073953,-0.0016434655095984936
7.68,0.04932408669492138,-0.006787511019727045,-0.08638243775980056,0.0147311418014883,-0.009762441309595641,0.005969599714631313
7.69,0.03621548553024975,-0.013591634649217756,-0.12540542888883754,0.012952011201116415,0.012825590770274713,-0.0008459862911537027
7.7,0.036899003628665834,-0.00468464678764912,-0.11206520683052872,0.021123051874822087,0.000950858814304553,-0.012198821675474005
7.71,0.055863181470129364,-0.0015355004810509091,-0.1038292426350206,0.009517765469151918,-0.03073315478591284,0.018622428754273723
7.72,0.04901202231341455,0.007175779195662068,0.6507702728947832,0.002784749886601101,-0.000808213943912341,0.01932569971974588
7.73,0.0643175953418231,-0.00965473094430113,0.02723150318989513,-0.0034995683375362227,0.004383496030101958,-0.02319452190909884
7.74,0.033996372061989424,0.005748880632439269,-0.14305780342725635,0.028416012739326736,0.0035485765677778867,-0.010964741176031714
7.75,0.04282184494912056,-0.008475440731400203,-0.7066377183729408,0.029058084551379714,0.015237566488022354,0.002138680669010428
7.76,0.03547263743049489,0.0089834618819217,-0.09797535222550968,0.014171884398668344,-0.013040958156266453,-0.014056416146680276
7.77,0.03357181220910456,0.0005252952652817309,-0.3595211171760139,0.014252527414502909,-0.012197777007199984,-0.0005558927435289622
7.78,0.05295361144524716,-0.01568355602752887,-0.05752355154642631,0.01916226078715187,-0.021495819317126998,0.003943497731324284
7.79,0.053167153627146184,-0.0041999572471990085,-0.10430720312970014,0.009751926967242669,0.01660116591717778,0.01455704624872308
7.8,0.05935140838406241,-0.04056501695631988,-0.08592054209542209,0.008453166905475975,-0.015670987878549272,0.0026537832255160852
7.81,0.06678496433502898,-0.015259148456102278,0.612325196198961,0.007723941908716586,-0.013721067958772155,-0.004970720450300825
7.82,0.0696445727605304,-0.00994773693913559,-0.09731684531355252,-0.00900073120627727,-0.006611140074499413,0.01699630580122325
7.83,0.060622006890610126,-0.012519701880538256,-0.08691927493772897,0.004928597247748211,0.0032770766925906266,0.011614977982400706
7.84,0.06583755549762904,0.010089848509944044,-0.03571215469902417,0.012369006909713369,0.0024903864463649457,0.007541673032581727
7.85,0.061899041404992305,-0.013021316001233605,-0.10963894214514919,0.008002243044840898,8.793214323519577e-05,0.0008076542138393625
7.86,0.06174054168685632,-0.015476436980102646,-0.12613366307078447,0.004102033147998403,-0.01282441367347665,0.006145074955518238
7.87,0.06099267765653162,-0.012274264895734134,-0.06809955478384098,0.012350742108898376,0.0034141536831370396,-0.004071929447613563
7.88,0.06214977227110091,-0.051704959287199294,-0.09064354534790132,0.0013911343977116202,-0.008996796897567853,0.0009311975824754701
7.89,0.036782897412260526,-0.02106922847363579,-0.08212566856308298,0.023647088530920478,0.00646639060120624,0.003148743729032774
7.9,0.04628355383227151,-0.04414415604873702,-0.09632840868573854,0.029841118252810675,-0.010272647159858862,0.0037432478050637677
7.91,0.06806891601335605,-0.02931981726790531,-0.1249771421918026,0.00410095774850284,-0.019801723262244938,-0.006484863781057325
7.92,0.05148823248523867,-0.02291268407147367,-0.061028783127107016,0.009531577218229047,-0.019951074410387203,0.003012729774874119
7.93,0.05274783291847314,-0.026548300749536433,-0.07815892539710793,0.014896691416147651,0.013044106427982606,-0.0070365383532719995
7.94,0.0746612298088834,-0.030789579054282982,-0.10077389028331143,0.006513690912343529,-0.0014193386713276571,-0.0018476194086016408
7.95,0.04797122072707037,-0.049687155607704536,-0.11870522698058847,0.007609589794763227,0.003919857447156371,-0.024615571577355586
7.96,0.04235884067045349,-0.037449593040727196,-0.1215196893395673,0.009658607802588263,-0.017579314593933578,-0.016710353821176666
7.97,0.05625711717693505,-0.02691188017947026,0.35702137040203147,-0.02051933627908172,-0.006929897710819458,0.009544512078670657
7.98,0.051147915423199915,-0.033143983051618656,-0.09479753392063724,0.004970565855135502,-0.004406326194791186,-0.013879578148884686
7.99,0.05320572746245328,-0.026894555151617962,-0.24006458572649458,-0.0030163223877669836,0.0016894625639909365,-0.004984862174741469
8.0,0.05078306498249652,-0.0372012109598813,-0.0961020025948455,-0.0015618663524314385,0.0030996989350547707,0.0005264216657294204
8.01,0.049972343518924725,-0.03765267242452078,-0.12494271019171133,0.009193627963891594,0.00027442879677594227,-0.01933185532120173
8.02,0.05090690914489246,-0.025518767743870956,-0.03774927758449328,-0.0039033767096359863,0.0028910937669052207,0.0011961284021994676
8.03,0.0659696766163779,-0.026967873068130997,-0.08579399497948977,0.00941172255811865,-0.013754464193338442,0.0018971565889132494
8.04,0.055056669633174626,-0.039702200965919844,-0.1046204784844995,0.004522180657656461,-0.001785608070555022,0.0018202975582487183
8.05,0.0695192664520478,-0.03411373004771487,-0.09849548560769608,-0.000403920849381751,-0.0008835195335696903,-0.006185492115249292
8.06,0.07251603891326253,-0.023073463610494997,-0.10843937532667203,0.004131549420038177,-0.01334123737476897,0.011206200981797185
8.07,0.06856342602057001,-0.046268126878715565,-0.05484020046568862,-0.019017549275833396,-0.01367119011008067,-0.004726413592438667
8.08,0.07476328507699587,-0.022547054670423172,-0.06608149840329545,-0.011947713334564654,-0.027329796600407685,0.013470143838905126
8.09,0.05214787745998353,-0.04924027987890886,-0.08413705670631465,-0.00691070515973413,-0.018255632893232114,-0.014558975293095107
8.1,0.06570082402201206,-0.04530081676092605,-1.1752759644776076,0.0005727868025228004,-0.003706077613864738,0.000861436425108411
8.11,0.07525485056952777,-0.027716601745755937,0.9836248604854219,-0.0021483840344537868,0.0018640815736667982,0.002958727532475318
8.12,0.08793751838270146,-0.03915081004485251,-0.06782695660218035,0.013571859849590612,-0.02343397279183561,-0.002003157136980606
8.13,0.05198561940131523,-0.0261064439091839,-0.07504879190247835,0.0016604814805335944,-0.0026237953608411416,0.019672080192792228
8.14,0.06511586899291011,-0.02063037967084308,-0.08437841439619288,0.0024594673507311333,0.0004634031677176317,0.0046368204941865075
8.15,0.06055765929258476,-0.030535789869886695,-0.10557577181850236,0.0022695684739252927,0.004848781110760818,-0.004165982435826866
8.16,0.06388648214663467,-0.03369584667792487,-0.10688076390002037,-0.01039231930631047,-0.02873861192891988,0.000856030035428047
8.17,0.09180521040129984,-0.05206528549014075,-0.06862616253183797,-0.013967764742929054,-0.013392425852631697,0.0029170218837354083
8.18,0.07618675924430779,-0.03298310494412443,-0.06426948586455132,0.012356639016480842,0.024491329181901222,-0.0018014930845600971
8.19,0.08547844189422063,-0.04220752913398732,-0.09533258001279334,0.01799887836036175,0.01958541184427429,0.004566941181604801
8.2,0.0833932483502603,-0.016862911491835726,-0.08869081916802832,-0.0005830353341575133,0.011661072892145692,0.02039056997040576
8.21,0.07529178753086863,-0.023833342346190903,-0.09516101165236521,0.017035786689077757,-0.0064389396004873685,-0.0033730118340385357
8.22,0.07250676830440304,-0.0274854413477501,-0.0531672628858015,-0.031485929239505966,-0.005086744565590211,0.0004217161292318387
8.23,0.0798201739500387,-0.005641679153399543,-0.07597287893172797,-0.01563548492348393,0.012529174983739568,0.0021145057567334338
8.24,0.06587709925453485,-0.03368367187104923,-0.08378843549499954,0.003132235693979165,-0.007741649362197697,-0.012143713354041335
8.25,0.07369185795213823,-0.0454201320389292,-0.07441563317140482,0.009088637232381899,0.0008397995745615429,-0.000658284462308676
8.26,0.07190946191780434,-0.03353029156555976,0.0019204347586418372,-0.009344430709900391,0.0007292111069974825,-0.005604609834697393
8.27,0.0789145138768753,-0.05132665790627304,-0.0594233682198515,0.01129218152032756,0.0008955078122455174,0.016926160403061143
8.28,0.062376024688853546,-0.03971316421078806,-0.07142740524324064,0.016130532008692175,0.00786120120805298,-0.023236583440284772
8.29,0.0731443589866095,-0.03269567210056629,-0.0690638087650222,0.012723026707830699,0.004595625069708325,-0.00973366065380982
8.3,0.0776875037927021,-0.030286524180087596,-0.0829808349351139,0.02087577394119168,0.0014032873586860024,-0.012182711399309685
8.31,0.07932509806789545,-0.024544969744333144,-0.10422243281169709,0.007070961125814516,-0.018999129010103512,0.0014855554308324747
8.32,0.08836016780581414,-0.03766637156576482,-0.06311010121890663,-0.004183830355976278,-0.019868716298551137,-0.010447012178081583
8.33,0.0664649629582122,-0.028787648623097895,-0.0783731777977791,0.01955699984684524,-0.013551157534977345,0.006400875041499752
8.34,0.08236295794816734,-0.044714948854425646,0.3296582689750637,0.003511211410411828,0.008336142988882876,0.007124514016174506
8.35,0.0760191714113273,-0.041326569895458215,0.21334677571106753,0.0027072533777384167,-0.0005661120671802593,0.0034104277437019756
8.36,0.0638144437932266,-0.039331606728897815,-0.12903627335310255,0.0007460354058415239,0.007513425582226844,-0.008158555500789573
8.37,0.06403806509236257,-0.04284891586295652,-0.06697327906810692,-0.0028078723475168385,-0.01755963092785516,0.01558891573928405
8.38,0.0946653527841524,-0.048752126745857154,-0.09955587589781809,0.004664962490211931,-0.0017885280375904936,0.019019291536092373
8.39,0.061147142246610504,-0.03320242683705748,-0.8143871464511908,0.007970936444172539,-0.0042240108582174965,0.008076634415584117
8.4,0.08162590239306114,-0.03653596109516518,-0.06959600396220893,0.007718515796181824,0.022250551660809977,0.011590107645751944
8.41,0.05845252681987869,-0.04462448531187733,-0.07801810290249547,-0.010555795927314971,0.009923987115780752,-0.0013220298184791202
8.42,0.08571349315817135,-0.02354249982429718,-0.09264543317210026,-0.004107202335741352,0.017070768349192703,0.02302939086476247
8.43,0.06696846049647857,-0.012801298651687217,-0.058247135938700706,-0.00930023937841975,0.0007399501608083715,-0.0006786128686613073
8.44,0.07042143356179502,-0.048146132012146056,0.20567653824741491,0.008253609521005185,0.006999554612814451,0.001281965957040488
8.45,0.05369168002539747,-0.022176808012435306,0.02726548415359093,0.0033506111794844792,0.01610631537403614,0.012092888524678184
8.46,0.05763017978188033,-0.044515304707697934,-0.10552694819537081,0.008278261546802564,-0.0094510571731377,-7.863169042409204e-05
8.47,0.050074067712173646,-0.03877451743002599,-0.056379777487561504,0.000393955079825451,0.015690962754006027,0.004927728301813397
8.48,0.06539315520386782,-0.030303931832570664,-0.06130019830880124,-0.01254581495767873,0.008885553566272929,-0.0045275967462411505
8.49,0.08305764074195662,-0.06725175737241494,-0.09028754083264347,0.0038108485933530337,0.00023160428022642524,-0.0033946167150125453
8.5,0.0723393077831273,-0.06428389551892667,-0.08294833504116476,0.0073553976614690545,0.001304595914134404,0.006379190942428284
8.51,0.0735062138464287,-0.03829216031527167,-0.08787580949559529,0.00018579893095315402,0.0004121069433879809,-0.005264088177322102
8.52,0.06425734557513195,-0.01742425922818246,-0.03964834610602355,0.006571036683465921,0.005374417262475037,0.011323320340110618
8.53,0.07059684163061154,-0.04722962472440825,-0.06104814532059546,-0.013258343037032909,0.01892086929642446,0.0025732301725231487
8.54,0.05407221933233458,-0.03827453681030995,-0.09970020705725456,0.007085916603895424,0.02465028730161446,0.013182966877305123
8.55,0.06540124400050502,-0.033297797148133565,-0.07693945945631965,0.01063552921593021,-0.007179411756121282,0.018042662470918923
8.56,0.046650748305332626,-0.05256548032576093,-0.08099691015127888,-0.011428834217989004,-0.018685995816839523,-0.001274718596273182
8.57,0.07275903748931785,-0.05218042467753845,0.6256935490067612,-0.00901765895171538,0.006461401869258065,0.01597707555466355
8.58,0.049221504397671756,-0.0390751703374524,0.2366273238492928,0.0035419064030732927,0.002361655479483406,-0.005107040863404824
8.59,0.07556423677426916,-0.04997826013699403,-0.11024732916972185,0.006988224937922977,-0.0014665449710698185,0.004374081075471407
8.6,0.0753317484960728,-0.04245206315361403,-0.1101666398942824,0.0013505380905257216,0.02752458743710339,0.014007149694771927
8.61,0.056066694656311956,-0.030442353041541942,-0.11657735276113433,0.00010708285065271416,0.019800295503460866,-0.0016493747217581512
8.62,0.03369250533946917,-0.04203540679139956,-0.08978478360845359,-0.007286679112676829,0.016358531234160048,-0.001458805318666912
8.63,0.0493228476486499,-0.030392292330337925,-0.10477682287552861,0.003799256705916577,0.010700870738356698,-0.010172377463258001
8.64,0.06856954125156853,-0.043269413047856836,-0.10265915981297614,0.006637937227316681,0.013995914298751303,0.011984905517120135
8.65,0.06419829628818056,-0.050054589602407544,-0.09440226572492535,-0.002131795177715598,0.00898833609521987,-0.000965834634419618
8.66,0.05046836886874498,-0.03294329099066078,-0.11785973559342112,0.023007107680698996,0.012078824914751223,0.0003430324048861568
8.67,0.04577099170262802,-0.04317763541357395,-0.047978930809578685,0.01915399562886328,0.017683999828761204,-0.017231188822106027
8.68,0.047204188012731546,-0.038648890839172535,-0.0693560885304757,0.007137697116419436,0.024591766067122066,0.0012693684952996944
8.69,0.05471700500594731,-0.037813161805009404,0.10927488245658198,0.015624240423181323,0.003347272094040907,-0.011207718985120003
8.7,0.04523305799810987,-0.04345488294820795,-0.1104130070366109,0.015028464850503725,0.023625642290109876,0.005255682861715009
8.71,0.041395381802300096,-0.04495265923327976,-0.11238843782219879,-0.0017930839865359744,0.011062484263097373,0.02008771384587283
8.72,0.07078960956509463,-0.03328510387302408,-0.5023678328628831,0.004045976222674624,0.01739591450884589,-0.005328709243374647
8.73,0.02971275546044782,-0.04596526483491527,-0.05537819625724768,-0.005259405454468024,0.022535147432169354,-0.0018721003675650945
8.74,0.057588705361892534,-0.04733237857745165,-0.07974534372753862,0.01777373859657995,0.02345659138512166,-0.0011014793322924436
8.75,0.04096017941728805,-0.04145234805193142,-0.08263531871117266,0.011282417290752246,0.013382780652746583,0.004157081421720343
8.76,0.02827683107796789,-0.05326335719476327,-0.11056792047938374,-0.007240040185000299,0.01390723392727258,-0.00618312707603135
8.77,0.03754483511986707,-0.04744502093036569,-0.049534625041125754,0.005888697699063103,0.02633334769204023,-0.022248637335995573
8.78,0.03647346918162314,-0.039938394333258395,-0.0547592978300514,-0.013242387099477015,0.0024165769079726226,-0.018844150792156043
8.79,0.04074066816656531,-0.05870268794512775,-0.08412994010812505,-0.0036570894580685155,0.014446317531220417,-0.010847080628345614
8.8,0.040337541669205515,-0.06516015027340052,1.022522831605697,0.01537896847375909,0.031569987994055394,-0.015322399935770522
8.81,0.030225631041612945,-0.044344623473739214,-0.1412095854295764,0.009336185479669055,0.01389361638295754,-0.004900207369879481
8.82,0.03488982817963555,-0.048647947973968875,0.6609849938297622,0.00020397620170160282,0.010164741584992127,-0.006326547309578736
8.83,0.037186896447784196,-0.04842531843722747,-0.14840499498821721,0.007007623815167671,0.03608296770440755,0.01036135219509894
8.84,0.01840991816860149,-0.06733761414740815,-0.13812508956989308,-0.00109685374341932,0.0052800616236932,-0.01670250104656902
8.85,0.035192481884044814,-0.05040556221740284,-0.06014694223821919,0.0052068114276154626,0.034073001544740564,-0.014766446579452665
8.86,0.03905344012364861,-0.03676074021853119,0.5387580538952759,-0.000831708582602056,0.009400005603825066,-0.0001223705116178437
8.87,0.00792422203684936,-0.05744101156807007,0.09337948846813132,0.00830656641302894,0.015272896008420214,0.002394085227080428
8.88,0.004241686528133868,-0.059100194447880686,-0.15883044668542845,0.012811535439946833,0.012388991174311267,-0.022822024474640344
8.89,0.0066652498446166525,-0.05701499270658719,-0.157543351940849,0.014145753234512608,0.03119110467512682,-0.0013232481857444532
8.9,0.015759311487483066,-0.0393432270787986,-0.14469343418864775,0.012009971527472407,0.02010445325862346,-0.000435282160193496
8.91,0.03215606482067376,-0.06215189474514915,-0.15492354108803236,-0.004509347914771889,0.004627407546725563,-0.0022434400545053336
8.92,0.007889399740177484,-0.04410354882796827,-0.11498895707486885,-0.011756198024621025,-0.001426767976226092,-0.016114182522727845
8.93,0.028404155655501463,-0.05232241548866213,-0.1182272923042493,0.00026970969493479713,0.01169601561565353,-0.00031395612924853267
8.94,0.00900258446154106,-0.05891896022390685,0.6932763786264424,0.011202457506607082,0.009343446351092426,-0.02153691500704727
8.95,0.026587048875941675,-0.07617089391980879,-0.17237339883092784,0.020162202087317477,-0.007589717114425448,-0.005214377621289899
8.96,-0.000320074475326124,-0.034134252873485996,-0.17627532689038622,0.003245034333167167,-0.009047723351400758,0.00723378883287511
8.97,0.007718039633234605,-0.05085903645887439,-0.12494416225330428,0.002045230410503522,-0.007727932126467715,-0.009255135784529998
8.98,0.007596923104584842,-0.059030757354767344,-0.13296432004522943,0.0105791533290573,0.008722632023644733,0.010763290845308214
8.99,0.008943533817490893,-0.057771609186967894,-0.15844337358840477,0.008749849080037418,0.022194149131630064,-0.01094085554176247
9.0,0.014192580907867725,-0.06655313298026196,-0.14281787097583615,0.029230362957743346,-0.008295779657814606,0.013427865432288131
9.01,0.009067345321140527,-0.06200261922529281,-0.16205743148597646,-0.0012681578789632345,0.0010672717725405548,0.012209876702767856
9.02,0.017226336260961476,-0.0626333626267652,0.49249242810693444,0.012742305754176616,0.002704688239098435,-0.004973764531878724
9.03,-0.004274290668830354,-0.056046839476629855,-0.16207572489828026,0.009997640368035045,-0.026950884290288406,0.015811809456854158
9.04,0.02231832078516741,-0.07588710674281973,-0.16611422917926041,0.012034758103636719,-0.01601322410070744,-0.0040708361218331525
9.05,0.0006333139195649684,-0.06902612057849812,-0.11896260748533635,0.028827387950104942,-0.010965377478711158,0.018868443951795474
9.06,0.004977431763449529,-0.0579993374320582,-0.16623121052139853,0.013805436479170648,-0.008624614744757396,0.00819604034892121
9.07,-0.0028431422000976658,-0.055335855575490256,0.15500486007901584,0.005286540175553979,-0.009205880921400093,-0.011994044222160298
9.08,0.006162392225915347,-0.06700356141177553,-0.14098803270905255,0.005324951054332831,0.01533436957510483,0.010815087876232725
9.09,0.014130957636417455,-0.06540134971767808,-0.1501052899970688,-0.0024479550839673833,0.016656188476589034,-0.010323217427893132
9.1,0.026690652609016242,-0.07985273701687547,-0.1616050068214887,-0.00026636352421130147,-0.0002192480231860399,-0.019636134019053078
9.11,0.006674397121890429,-0.06655817790604239,-0.36038165987229764,-0.00035824027359340413,0.0026703802630462293,-0.006402870433229172
9.12,0.003843771473373952,-0.06561102129806488,-0.10109389938043459,0.005072696967106205,0.0006067277644137257,-0.0028779650349454082
9.13,0.01907075062320835,-0.058288096249698954,-0.11985455741270484,0.0140816117649652,0.011476311235463076,-0.006862917538620035
9.14,-0.012638959983013748,-0.07686625902146146,-0.1362723674123621,-0.002686526643936162,-0.00186490883681064,-0.005309841269713674
