timestamp, accel_x, accel_y, accel_z, gyro_x, gyro_y, gyro_z
0.01,0,0,0,0.012593558198749778,-0.0015539328657040614,-0.016242190565655082
0.02,0,0,0,-0.03385343324137369,-0.017640055529783146,-0.005373775891021561
0.03,-0.009939148808696641,-0.0007299136758189207,0.002219204121374756,-0.02271047683226673,0.001824270795790086,-0.010106577172167851
0.04,0.01826852173348475,-0.0143091611878322,0.3278282148888252,0.009763707616815524,0.006877060352277887,0.01543058798238672
0.05,-0.01382877977421126,0.010082594236518526,-0.014719556526449762,0.006077293313199216,-0.0009809593760958177,0.009525535399511025
0.06,-0.004507951609803669,0.00047119934121569876,-0.2937708774193357,-0.014974176878938119,-0.0055499605768912184,0.015112630913510344
0.07,0.013788181798912492,0.0032538526910218246,0.045986440003982845,0.0041508477359988374,-0.0358085208087362,-0.018865097245237505
0.08,0.008981656843742492,-0.0024042944070925467,0.37927389113006066,-0.007789955862986946,-0.04499964113109006,0.004014022784560606
0.09,0.015659618609584626,0.015713476164488552,-0.38613954870897466,-0.014640242992001444,-0.03917934786584397,0.0129669590759721
0.1,0.0045879234004272094,0.008519714377996163,0.04230989249250383,0.0009347098252096425,-0.031242464951630963,-0.006779422687009309
0.11,0.010890648245715184,0.014577527607015271,-0.8206954947843076,0.019368229291264936,-0.04025735990743174,0.006797546839650026
0.12,0.012720362701793572,-0.0031709354619183436,0.13048472063041133,0.024718735404848112,-0.025509860270908662,0.0059339548145431326
0.13,-0.007197217430799804,0.014013513409465968,0.11993821632860643,0.010880320884278968,-0.02883814865873426,0.018443523322824458
0.14,0.03336777485113776,0.010001134164109594,0.09523219787447329,-9.433746970504212e-05,-0.027538594061026683,-0.01911319811510121
0.15,0.01558887337927375,-0.011843403740836707,0.07452060179609749,0.0010332113943154692,-0.023562953758696603,0.013487160043661335
0.16,0.03345434468609922,-0.0029798476599279273,0.06627578096336477,0.025974965962999638,-0.03928015263293763,-0.005662813290175437
0.17,0.02449017308438245,-0.0025762778837337685,0.15850556195739537,0.0006386063228134946,-0.037758171671690786,0.014514450447263839
0.18,0.020763862466087316,0.002815907929987938,0.10442583952257757,0.011970951730410438,-0.043373955153408104,0.002518914147449899
0.19,0.01022776570198948,-0.001344310355602916,0.09284090497881829,0.0033285008752022595,-0.0425402876447456,-0.001963778515653243
0.2,0.042025041793527666,-0.0030962408315839667,0.0880475406546817,0.001308324316444,-0.03754494410399875,-0.0017412987972574329
0.21,0.03853206646933903,-0.008608788555483943,0.07942588747667294,0.0013675055639298583,-0.05794410320759282,0.01880129078996822
0.22,0.06510368288801657,0.004243412368649372,0.12672127953732987,0.01400803459382395,-0.03467411469732842,-0.008376213270287978
0.23,0.03651905131711729,0.002752171502410956,0.1245659342696134,-0.01620266187710953,-0.03592131876615244,-0.001709013585707745
0.24,0.049219226754749934,-0.01471356405446127,0.21890707532527798,0.018069114456420593,-0.04517696002624788,0.0044465195321035
0.25,0.04999364707380138,-0.00804486075658528,0.11046542199347267,0.0027538032220721775,-0.040777965989964166,-0.00679972796374519
0.26,0.0627859402616615,-0.011356353608563846,0.09661424504924587,-0.023832328451645443,-0.0690972154776596,0.005969050619339476
0.27,0.07825487605998568,-0.01017912592512447,0.15422614330248657,-0.006218655742739972,-0.051541186788315124,-0.0012232103215298004
0.28,0.06490137278339075,0.006200530593809874,-0.3666039107172371,-0.0014911024834478388,-0.04611573581660521,0.018685647951686864
0.29,0.09381345453171001,0.011699963282920216,0.14448805889836489,0.0022682314945038323,-0.0480848322219117,-0.018330274836046656
0.3,0.08689949745461802,-0.013312429954029871,0.11288835888628741,-0.01675975378534521,-0.042431567040464066,0.002823345423383573
0.31,0.09364358576984944,0.013034952032240008,0.14149327539798787,0.004102666235188634,-0.04889581551325233,0.0033865796102652357
0.32,0.1011304094942103,0.0031542931194056684,0.37429983973076336,-0.006531996898896461,-0.04237145322743345,-0.008747608396206863
0.33,0.10182123097253151,-7.995410333203382e-05,0.1342971853717493,0.013902006184647474,-0.05847522630109689,-0.01126357299097766
0.34,0.09569967233852632,-0.024159283858429623,0.14823250909519214,-0.01122258445060318,-0.035579571626612225,0.002948990555951282
0.35,0.09945411573562499,-0.012588576316330409,-0.16646510686646118,-0.003279712577773726,-0.047436703366322504,0.0035017948524222187
0.36,0.11715422955044971,-0.0025959513372044133,0.13957918700940333,-0.0025131078639136634,-0.07281360436705361,0.002068661623031816
0.37,0.12563485783758283,0.025890784910327206,0.1660863427122425,-0.0040293320644112975,-0.06610295368378354,-0.021775529539300852
0.38,0.11303747987732696,-0.0013217505666389604,0.16019196847462622,0.010214584138808717,-0.040110808725883546,-0.005262663438867521
0.39,0.11101494138898003,0.008488637577133305,0.15018857128443255,0.0022526073193905203,-0.066491848071231,0.0007159654109776042
0.4,0.12022526962764768,0.015617157871948593,0.1560035259883173,2.7472702650660485e-05,-0.04101353208911822,-0.018907706553664638
0.41,0.15669413386574688,-0.0024491896619780905,0.12933818864028285,-0.0005287483646064508,-0.047959785322352594,-0.0030093413629179565
0.42,0.1312118278128696,0.014808229152500574,-0.03405780907294406,-0.0023354341664011155,-0.04573766191467441,0.010064046574855316
0.43,0.15300406577356507,-0.004861035859832343,0.18360117332251985,0.004621470876065414,-0.06333478134048802,-0.01061392638319662
0.44,0.16735039157064102,0.002426339229458851,0.15645054500735692,0.006951815568225244,-0.039903089411407425,0.0008564358252300477
0.45,0.1368494295657178,-0.00017052895725009395,0.14142863494574837,0.010574280743709263,-0.05180092756472882,-0.01422900622755061
0.46,0.17593074009671725,-0.003019069573187391,0.14999548340162,0.0021710110899742178,-0.06789799420022746,0.0009482826642169105
0.47,0.16252631937838843,0.008951077137634269,0.29757103914306715,0.016524742639826645,-0.06002855038810055,0.002877383738914889
0.48,0.16889247532403368,-0.011743843761100284,0.15615858751412462,0.0008560005361559068,-0.054860086086743615,0.00927838864846714
0.49,0.1665921741487992,-0.0007476174825120441,0.16161711153223465,0.01404378926070597,-0.06370909665052919,-0.003252991806127561
0.5,0.1971948906680109,-0.0032216183686323585,0.16551656778945684,-0.013153110186914336,-0.07379972888814355,0.01537583217074146
0.51,0.19090443017384454,-0.0045983947441774215,0.12108982861013053,-0.001863825411735345,-0.07645035965547517,-0.0017102907486494768
0.52,0.18918462657745425,-0.015691948621133957,-0.15017752244761046,0.014711773820939928,-0.06542206416650719,0.023007107362182158
0.53,0.21192732816663998,0.00458810571538518,0.18506677526683413,-0.0030535928526171296,-0.06262503996223036,-0.004940653939243702
0.54,0.23119164991042335,-0.0026722981873193107,0.19606175862148956,-0.0005353611431230081,-0.07321936933483292,0.008746327218054108
0.55,0.23375832518097164,-0.0030252547675131795,0.15377276571848222,0.011623747623204457,-0.05821481832691814,0.004858418802860388
0.56,0.22891951325740614,-0.016367052011507885,0.14776915406670796,0.008258454386230666,-0.0690027368652293,-0.01318393169936441
0.57,0.24008817699973087,-0.006222168029202461,0.1823150727156603,0.0014197823913650802,-0.0580203811686585,-0.0006901358358865611
0.58,0.22829240971691325,-0.005180843313543455,0.19580612264137476,0.026150296345591635,-0.05897701334341371,-0.007727932382531555
0.59,0.25007444541289986,-0.01706006896451629,0.18061647827097893,0.019568655004829023,-0.05845945873020625,-0.00013980256697055
0.6,0.2569869330652279,0.0023607844988473414,0.15385144202672466,0.005054985825618626,-0.07290727127755314,0.0014890205392352448
0.61,0.26518963781783644,-0.008496157149621033,0.13897753018885076,0.009424077566676898,-0.07181848619188609,-0.013426978479546272
0.62,0.26008837133464224,-7.243503622477582e-06,0.19167885278936192,0.00808725113876347,-0.05576911363701886,0.011093897074438464
0.63,0.2852704760619491,-0.010189238079577702,0.18174943614126518,-0.010408785380547592,-0.0612778179636459,-0.014902682113700726
0.64,0.28112565446880433,-0.003644256482846933,0.160966024281578,0.010401280422250348,-0.0536961088225865,0.013660629153381702
0.65,0.2888718095392907,-0.005261950558998904,0.15762510504357585,0.005412854971604519,-0.042024641666241334,0.0029341928302963624
0.66,0.2883927094634222,-0.0008961051623873305,0.14039528135144566,0.0005763887936735355,-0.06470111265132558,-0.009696214948087869
0.67,0.2961589753557216,-0.00293428028261381,0.1796580518004058,0.006831081955696526,-0.059988443272672755,0.019058269811115837
0.68,0.30630930650530214,0.0019424979636225373,0.18228890229830197,-0.012927515313288191,-0.08213973371726888,0.002802464530647581
0.69,0.29316700839292814,-0.010265398110125924,0.1618394377626304,-0.02029679443886754,-0.061104911814608434,-0.0014222426068389725
0.7,0.31192031835345957,-0.021461435346098255,0.0889769198274458,-0.006808006705245931,-0.05471681193092088,0.00022385687738541013
0.71,0.2961270822814325,-0.013692080492870915,0.14840194260907033,0.012418935686262803,-0.07296247076265729,0.0047340530292919476
0.72,0.3050331076122674,-0.0066433427987765414,0.18800224242611763,0.007976812325217256,-0.04651613220587427,-0.01113245796689894
0.73,0.33496978386948223,-0.005730262341103913,0.18512376901470923,0.008283773342937353,-0.06759222399022076,-0.013689882584337077
0.74,0.34130749768105384,0.0017428999778015195,0.4874375984010142,0.010169204992665173,-0.06220452298458204,0.01175120028721681
0.75,0.3435573304170133,0.005355851158354335,0.13268402029767662,-0.0070077636593049025,-0.050136187048591435,-0.02339464681722541
0.76,0.353423046872474,-0.029065755883134536,0.11029763471070991,-0.0014039311965974993,-0.07964797268379688,-0.005491114024139299
0.77,0.3201709902596856,0.006880772788399284,-0.7250114226557626,0.02220627747080875,-0.07043736563472099,0.007815464484808183
0.78,0.3735147187188395,-0.020221397341477914,0.2289367872440662,0.004012209477526155,-0.062490115020064775,-0.0062538754730918945
0.79,0.37976214874804903,-0.004291269139417686,0.5072464408417205,0.010453311902669987,-0.04808772713358826,0.007695359380815269
0.8,0.3783019709516304,-0.015712733133492966,0.14419065796997232,0.003251353426792645,-0.054441448340321115,-0.012800245872163649
0.81,0.38201673713774775,-0.018733714735241765,0.13994268841341825,0.026228664826179138,-0.0833753942753003,-0.016259337928430748
0.82,0.38312458919751374,-0.02476701099834954,0.1928973255710341,0.02172007109518755,-0.0773658936309872,-0.01302448680368709
0.83,0.34411695420584837,-0.010631561159685103,-1.0240199307814952,0.005959433385129618,-0.07261630605487004,-0.0025498724869688944
0.84,0.36005259159541103,-0.022703909187912832,-0.5728774700572445,0.01910881090695038,-0.05842495416703132,-0.02354353191939056
0.85,0.4234711339881729,-0.028263440938908597,0.23106693716768406,-0.003001273186898237,-0.036439805573215356,-0.00436058526971042
0.86,0.4313211584980407,-0.04091486146941551,0.11607969491339448,0.004333582188423118,-0.07440788627322974,-0.008747964046829884
0.87,0.43521514288193175,-0.02136576694076756,0.23180469896995673,0.006985338729624785,-0.05176320870190488,-0.010643996829123797
0.88,0.43200855400147553,-0.028005914705013964,0.23168573822089414,-0.009084572468937282,-0.05795351058347679,-0.005362609344728245
0.89,0.442727299626983,-0.015518910362415327,0.19952699464022797,0.0077017473452516165,-0.05093563424809943,-0.0005823126552713404
0.9,0.42436048430477524,-0.04675671879646684,0.17755973313289058,0.011288437123471,-0.0545410740787146,-0.0018593002857299973
0.91,0.43976137466205584,-0.02531198804337648,0.1860285810136641,-0.004635366525570831,-0.06070335402549257,0.0005531650910533311
0.92,0.4490403840883861,-0.017104049380165205,0.22713622932556954,-0.004913354870856214,-0.05272237208103683,-0.0045479373716180126
0.93,0.445328744863531,-0.02930559638069906,0.21164270465195534,-0.00616255903941811,-0.06964847731401547,-0.021502553341599083
0.94,0.4774298615723376,-0.021284556572683976,0.18043964316384448,-0.007141604729926942,-0.05563891752959225,0.0006911089658595227
0.95,0.4862052583194057,-0.03759489101596736,0.6568244228290061,0.007475615707589658,-0.06879083390446225,-0.00754349696023036
0.96,0.47654542234699576,-0.039244715112237726,0.12657666861488512,0.004221488600187907,-0.057584032285527324,-0.015234764742470559
0.97,0.490368706947477,-0.04956533814878844,0.18084227316215484,0.004484293048776162,-0.06581736421986248,0.0008761922321546352
0.98,0.48216073661348396,-0.029360847996544096,0.1772924669049803,0.0007321504939041758,-0.06542495500794493,-0.004827589681472255
0.99,0.49671597291578723,-0.02206688924808723,0.1467971967922086,-0.013579809385590086,-0.04861026830610342,-0.011038004595319045
1.0,0.48346213964598916,-0.04840699801366023,0.15530051237544948,0.030923743369476155,-0.036073805750379606,-0.010114693509853888
1.01,0.513835179449418,-0.02591842128851987,0.14472495269790994,0.006511993655694961,-0.03965136869187788,-0.012964439861197705
1.02,0.5431933689408873,-0.022132319500142567,0.7102273648400473,0.010690072764489442,-0.05390241685123763,-0.006040546795132168
1.03,0.5164265582392225,-0.032740387085533736,0.13770427723187445,0.0005254251625080556,-0.040265035783172434,-0.0050498305076778095
1.04,0.5258422061825166,-0.01738352115884089,0.13212889094710575,-0.00028683642631394807,-0.03798098889333504,-0.00835803439685895
1.05,0.5310539226407021,-0.026524635537153875,0.12742350413656353,-0.01360378829218957,-0.03294202850608921,-0.009589771130666301
1.06,0.5220620970433628,-0.023143079840923956,0.09440611475792739,-0.0013938624063145758,-0.06309636453899135,-0.007016065596254575
1.07,0.5179078852097989,-0.02947997250130397,-0.2428184454812419,0.011517064641258035,-0.04950829954619841,0.0003424416945726292
1.08,0.5396927012407717,-0.05045520106336942,0.17876277803310006,-0.003700510461026905,-0.053153712988319265,-0.009021697625484458
1.09,0.5452195288845736,-0.024298287759546077,0.15127502103482074,-0.00645838559860633,-0.03241811029355969,0.0154266342122371
1.1,0.5429772856961163,-0.033590088771415214,0.1372899097944123,0.026744290400390117,-0.05585705138893102,-0.00023092386059686294
1.11,0.5474071194101793,-0.03876119663101778,0.13856621205473857,0.0023386745366284697,-0.05138117389605879,0.0003529287650181533
1.12,0.5344466559461138,-0.01777109454897253,0.15029497381670925,-0.0019305980072727852,-0.033305770920989027,0.0027195118877257696
1.13,0.5547998451321561,-0.03924558574811431,0.14542739210400868,-0.003002633883557899,-0.04969375207236005,0.007795397909655547
1.14,0.5614709572847739,-0.0327597544417303,0.1341452147746338,0.01030446692488931,-0.051617796664612275,0.010934008631543046
1.15,0.5660347466201467,-0.04964291386322339,0.12263404182190114,0.005444441580948649,-0.020922633951355334,0.0007557938115000909
1.16,0.5919251121607866,-0.02134406646800184,0.23974561960829813,0.0024486551119885696,-0.03455708723684775,0.01625415469210114
1.17,0.5736044328420833,-0.03726935458166116,0.15778441984469346,0.008853533777747658,-0.046207595795535156,0.014559210287523014
1.18,0.5689703051134157,-0.04224503698316871,0.1343141867105819,-0.01242178150870982,-0.035800121499721636,0.00539897644676671
1.19,0.5904201558868503,-0.037436617149996965,0.12235667807613254,0.01861393724578444,-0.028661670371293285,0.015733158670436433
1.2,0.5767227393302161,-0.03625115725503627,0.10372158547252668,0.01715664127665274,-0.023026293724588493,0.00864725913726774
1.21,0.591272914248457,-0.0207824553156192,0.08019709132041514,0.011426006666524664,-0.026040876671632768,0.0007842594980826739
1.22,0.6094364125802395,-0.033044008502968764,0.13710122766342833,-0.005970720277201526,-0.020803324779390932,0.0029297408283582944
1.23,0.5935601040300295,-0.0353334006387306,0.11614544212161065,-0.0005668446278729675,-0.015821536295295244,0.014390864736307553
1.24,0.6063994247753123,-0.04815877846900978,0.11150725282301319,0.012934113158717007,-0.01184095537157668,0.012953523538727354
1.25,0.5950622408407745,-0.016092172761214905,0.10369870502843953,0.008195145132172666,-0.016732550868690178,0.00882993038821012
1.26,0.6181631830726603,-0.05574034315915771,0.08536225666040542,-0.016745772065235545,-0.02016886684293716,0.005338262055987799
1.27,0.6003843307122106,-0.03126333947059355,0.13347691562237368,0.0022761080406757594,-0.026600095257475635,0.0037128361056038583
1.28,0.6093141022889549,-0.05335500452519423,0.1316400520161289,-0.010273455963242228,-0.005286907746249694,0.0005000624031730582
1.29,0.5889520385053519,-0.0445658037791541,0.10619068414844837,0.004624734239475717,-0.018599837708487464,-0.013727344587653213
1.3,0.631106045716854,-0.04040058872171894,0.1045776678053149,0.006914459568867763,-0.007503710342153181,0.03608550184763504
1.31,0.5927011792943807,-0.0463777789784586,0.03461713905179341,0.0038213906319170443,-0.02872702482057994,0.03550110628608616
1.32,0.5823844242792673,-0.03238393793952161,-0.26724091175088266,0.0013910020559141376,0.0020168007136025876,0.013087710901132867
1.33,0.6300834976888051,-0.043792773075203816,0.16365444036631593,-0.021295283869400394,-0.022241962562605987,0.010987393143228056
1.34,0.6161137367066043,-0.049068100385336544,0.13311941741089292,0.004508018581910701,-0.012417014700166344,0.00679871910632573
1.35,0.6002555616363012,-0.03982178387963719,0.050749849284775786,-0.006427962029708065,-0.018962944453182907,0.003278610391225287
1.36,0.6363789235248819,-0.029970942404938753,0.09349869626286658,0.010877646434730263,-0.024585669383087996,0.026569979532263827
1.37,0.6126597810152489,-0.03268284687716279,0.14459270043108352,0.007729258488849944,-0.01043119728974392,0.015252966135210811
1.38,0.6370317317355974,-0.03262420634792305,0.6273650993762775,-0.017319131321505962,-0.009838744174535046,0.01755419203283815
1.39,0.6458120754291776,-0.014326816014489117,0.07725257539066238,-0.014052373527595537,-0.0032669339982684693,-0.009827570521852947
1.4,0.6233782737882827,-0.05067843161701042,0.06390548980155684,0.004752553098073448,0.01648961957659978,0.008203091599623376
1.41,0.6276177170629652,-0.0390046711784564,0.052955971479718165,-0.013675673885049533,-0.008111100204268478,-0.007290306890679975
1.42,0.6318896389442142,-0.04141326798703216,0.11426752441924284,0.013656379959817316,-0.021706100948275055,-0.008816382701209113
1.43,0.6108648869272785,-0.039368659435712966,0.1050207808071581,0.00887996100687874,-0.0062680803302332284,-0.0013350831318957443
1.44,0.5656483570573457,-0.02969511266329698,-0.862292205629625,-0.0026150521580217134,0.017946123468222337,0.0011194426682478208
1.45,0.6257780196783095,-0.03736573812623989,0.13241534879777725,-0.01267420124415364,-0.008019185739790215,0.00032940591747094536
1.46,0.6169960892935434,-0.03120337664388555,0.09390543998679102,-0.01903302024206531,0.010646928130268067,0.0016123059714535806
1.47,0.6126223594559073,-0.04742917937085579,0.15718272688823262,-0.004698725049985505,-0.017417134835495222,0.011520255336429967
1.48,0.6073331678477618,-0.04296362814634341,0.14247074885423014,-6.24257523713233e-05,0.009031691964119036,-0.013826253188020485
1.49,0.6376107128661597,-0.03301175574776128,0.10503155259292819,-0.018428112889349178,-0.003794458235539884,-0.0025421231122291525
1.5,0.6256941614194269,-0.04079350168337213,0.07173981861628999,-0.007628091178294739,-0.015250091863961576,0.0005537217848791533
1.51,0.6269161866103798,-0.047865990339555194,0.09246062791257868,0.0007396166865696195,-0.011284024337747311,0.01123592730599434
1.52,0.6291969636879693,-0.020636904499436955,0.12398607194462082,0.0041933250997410205,-0.02007088454692798,0.007422823540839405
1.53,0.620272800885007,-0.025281953429733887,0.10989778787864853,-0.004250039815883991,-0.007135368185296293,-0.016989127504211804
1.54,0.6418233175077608,-0.05127685982973007,0.10226423884998762,-0.009368180053130375,-0.0019138425054523274,0.014742817796374505
1.55,0.616162672205986,-0.040876276481849175,0.0808479590900663,-0.004251977612240666,-0.008345765221752528,0.01856472032073324
1.56,0.6463185318123539,-0.03987396153626806,0.06739496961186146,-0.00352436289741723,-0.005595824105844749,-0.0032544852489206693
1.57,0.6293694331612077,-0.029179239493756434,0.1294796759960643,0.004305485984699715,0.010452451063462537,0.003233160829138464
1.58,0.6255954467240867,-0.0181528643189311,0.08824068281605764,0.006955542254186715,0.01694379590422638,-0.005797490463606873
1.59,0.65362500032909,-0.03875458640714013,0.07398026450358164,-0.00982261828411208,0.01354268417869152,0.021592257226647173
1.6,0.6209115996127134,-0.02861920085161751,0.07533591642940003,-0.00880373653087126,0.022992757305715344,0.0118568126980939
1.61,0.6348519211860602,-0.04749614312378575,0.05349795993759305,0.002445679410745986,0.012974417895542415,0.005827423419698912
1.62,0.6307816265646761,-0.045765257968651406,0.3210901158257702,-0.004231076989909778,0.005013525365416912,-0.0014983395692049466
1.63,0.6086481787030058,-0.03506920148838917,0.08002865724105994,0.006125123995628717,0.0106615343085917,0.005823766916503802
1.64,0.6274421190333104,-0.03488633060525671,0.09259849436347158,0.00385159797606846,0.03134276090145933,0.013390042963568653
1.65,0.6344633566311095,-0.032926425663992856,0.04767661779955938,-0.01592195654662638,0.033985489801252794,0.018549205685983075
1.66,0.6151207058700172,-0.02171340948389183,0.057342030569055145,0.008604151278398156,0.026228480117457993,-0.0009385718217180912
1.67,0.6893061530418099,-0.031266189942883195,1.1989368060132541,-0.0003006203575678766,0.010016136185708012,-0.0013558541415247633
1.68,0.602593521330191,-0.032803630583725124,0.01407077271016503,0.010692168441330042,0.008760462072575824,0.007515634772009729
1.69,0.6018484607142546,-0.03308760384611557,0.03057990575749942,-0.008175042749463327,0.02539440798285266,0.007350714272689007
1.7,0.6040479828910102,-0.03717669809349707,0.006936081538632812,-0.005290532921750895,0.02649411254032929,0.004091173082480751
1.71,0.5980998933532745,-0.03168415199848964,0.008693454230292313,0.01002816322542316,0.009505964149626423,0.009515266624580302
1.72,0.6072430933727804,-0.033247370451078714,0.06499976688039197,-0.007420425125086415,0.012496391693935056,0.0007036250422031906
1.73,0.6050370140895542,-0.02367283102776413,0.052339280340458254,-0.005696859023191196,-0.015092846739898282,-0.0013569146473272845
1.74,0.592513832789461,-0.03796563252792194,0.036067922400296194,0.01334481957762312,-0.008016987830933657,0.0017903108784788875
1.75,0.6023185161394613,-0.03040502525511185,0.024253108874406487,0.0028475462136830203,0.009897045958120899,0.012355228238565174
1.76,0.596327525439856,-0.013777035650808242,-0.0019687208615300784,0.012424621963490645,0.007233016285085514,0.00923910103060129
1.77,0.6172628340753828,-0.028042170709130388,0.06374429191455827,0.000559190609318702,0.015687122997763064,-0.0005501239517379064
1.78,0.6051228410027182,-0.03766590749639166,0.03917571954367391,0.017012401840115744,0.019877495939511314,2.9782431419396634e-05
1.79,0.6036986535680495,-0.029597509174894714,0.04827725504028717,0.009040240005966389,0.0018409760825500616,-0.002513646538921807
1.8,0.6006419660256448,-0.0271031206324109,0.027675605532331567,0.002496660200736281,0.022772042739254324,-0.012006807072566964
1.81,0.5990707148387284,-0.025385576859341057,0.007256719853036611,0.015983632192146977,0.021021701733544486,0.005701152233551244
1.82,0.5895803784686998,-0.04078739552294195,-0.17716133114552285,-0.01036499165052133,0.0032923159204062925,0.0014321689199880815
1.83,0.59853900449703,-0.03344050202217859,0.070336932314427,0.018694151899229794,0.011792070526283355,-0.002463141098754454
1.84,0.600063231464159,-0.02093818798403249,0.04126306355114047,0.013989884779633328,0.01881801499542702,-0.011910630054762533
1.85,0.6017262633039959,-0.03296572157451517,0.02434972563634939,0.007131636070802096,0.036476909834889104,0.009150082803664462
1.86,0.5879279656824938,-0.04181484700172889,0.03740592344714832,0.015114144529444023,0.024877054583699848,-0.0004346869964025092
1.87,0.5763713760631178,-0.022389549792978438,0.056575095883182464,0.0008170075973160532,0.010916297082782429,-0.010070883299339889
1.88,0.5682019039977789,-0.026203915848085766,0.049280038392715914,0.01447832003442935,0.023438476128119078,0.0009542100414395699
1.89,0.5711093024523352,-0.03682230868357877,0.02280927712303503,0.017492197829603394,-0.0009993615517418439,0.002462924358798256
1.9,0.5692244902144301,-0.04627576556418529,0.021239677494457973,0.014459731561266218,0.019691108662447637,0.01831976605359043
1.91,0.5831470150230388,-0.040591073754171966,0.011070690294940524,0.01120708735121338,0.012204096326667944,-0.016186879563815933
1.92,0.5881159779869057,-0.05011404768156217,0.03729155515120994,-0.005277175429658042,0.009225281532773473,0.018693098426439292
1.93,0.5804443579578877,-0.03921077590269731,0.05021268656639984,0.0010203175474121336,0.023024407789932446,0.007839672235962946
1.94,0.5563545145129618,-0.04528848376224958,-0.45156925972701273,-0.0003472461232100748,0.02041524593383389,0.003380310340087655
1.95,0.5739566304056775,-0.05044879543058296,0.03780608643085549,0.0001103517930966932,0.02145427567345453,0.015317481815425388
1.96,0.5702863092260949,-0.038716763220804376,0.032284817374672856,0.01018268922546703,0.012007066518356127,0.010171550806457173
1.97,0.5744543246931748,-0.0589329471392047,0.08201135588376031,0.0009169451074291434,0.020521777531557584,0.0070057122327193124
1.98,0.5684250727129035,-0.03626356562755195,0.03399998444771675,0.0008886371347175152,0.019672597210226798,0.011405501897924499
1.99,0.5546803232190117,-0.048989066520809525,0.0370192181451471,0.016989864832004296,0.023049895680672432,-0.023389227988095687
2.0,0.5550402864195424,-0.04598325331684757,0.017179694279990873,0.013154978683694791,0.02531430900218583,-0.025579977475765937
2.01,0.570071109741525,-0.06035321097469261,-0.011853515640671499,-0.004111538465454614,0.018829273928058485,-0.00761166770775497
2.02,0.5688199414142565,-0.052112738323211366,0.2679769296650294,0.009766553615477513,0.019770780987846816,0.015624117580145619
2.03,0.5541930309449071,-0.05643873575225654,0.01923919487105505,0.01198146453485654,0.016557633791817464,-0.009476202935555272
2.04,0.5534030814441437,-0.059459842185366305,0.03622327850559136,-0.003593717041141092,0.017905341345030332,0.004437164645221818
2.05,0.5608425266549257,-0.05312113149034621,0.00890113189141695,2.915957045500177e-06,0.03332429241133385,-0.0003429694581993468
2.06,0.5671283993516291,-0.062252949056927756,0.001033764559573902,0.005334097328159498,-0.0014976415797856128,-0.00203129514995727
2.07,0.5546324637172664,-0.050504890993717716,0.05217342057978586,-0.006422924939755036,0.013238290994212705,0.012416026220390789
2.08,0.5443207630005265,-0.048388298559221964,0.044201430158445104,0.012259957002133176,0.013970108845885967,0.021271653834529274
2.09,0.5432728150907521,-0.04031954177108832,-0.01327230934390108,-0.0005681111914565703,0.019978033087741764,-0.0029168171917331003
2.1,0.5578070340506208,-0.048457720749460066,0.2511452715030058,0.007798898517999185,0.021751191390673528,0.008682821286998094
2.11,0.5670840357323443,-0.054405049672288014,-0.022985862863789577,0.002971430652124026,-0.008790368590507282,-0.006097261503411657
2.12,0.5526149455968153,-0.07196993728058354,0.012710805265250844,-0.0006561054411110649,0.015310701825579996,0.005985632240578498
2.13,0.5424003881830303,-0.03799965613058102,0.014116085958548491,0.017160492164157957,0.024205474073905622,-0.01295489888713252
2.14,0.5523998872831578,-0.06167621154831124,0.02975642616488984,-0.006260720018943197,0.028781176100362838,0.012895568135713539
2.15,0.5468525431336162,-0.038815442289892775,0.003024899568676415,0.011685619554757117,0.023065188526177397,-0.005941826057185349
2.16,0.5380461028639125,-0.048196678027741066,0.0029115180471658477,0.013048613033577449,0.028418660034542666,0.013965888065766723
2.17,0.5289365339240245,-0.04411229662823418,0.029437357962302332,0.012484306789561393,0.006438868820412603,0.0038849619915239776
2.18,0.5310329705439361,-0.04578617937900426,0.01948437721348798,0.0012418238187563687,0.02905004422844949,-0.003585481789336625
2.19,0.5424147047511882,-0.04603532951433432,0.012271773031086033,-0.0009025550258018227,0.018572294916480492,0.01940486338175131
2.2,0.5254523015683654,-0.06285369462550136,0.007119755654943583,-0.015242051734883471,0.043278618511279524,0.005639392455418494
2.21,0.5136096727674381,-0.05205158537045463,-0.16117887702802985,0.02568759936166455,0.022102963319957217,-0.015579939760170587
2.22,0.5403739835692206,-0.06777190615093498,0.2591839102250708,0.001751119600215718,0.011417932713951537,0.02237849575556379
2.23,0.5071266575310743,-0.05403049282727974,-0.18980333867415966,0.007652246024681825,0.02365544816772883,-0.009852567291445893
2.24,0.5097902792571796,-0.04629405561982265,-0.2742934313507587,0.0019582456165011452,0.030280322388095166,0.006963071961878604
2.25,0.5141513465854094,-0.05184284503411509,0.031465865241952044,0.005564798222664845,0.030045482516738775,0.004703231419536362
2.26,0.5093399049235884,-0.056528087467580604,0.011556841082429582,0.018254351811040195,0.017322447511184447,0.010242416720637644
2.27,0.5230908050991703,-0.059644706566706326,0.06846009139725326,-0.0032318738974969757,0.024836524514269216,-0.00817270667736535
2.28,0.5189119350258035,-0.07058450989318665,0.06369161587566233,0.009207978863278312,0.01864145949486297,0.016442552053846236
2.29,0.5136575784433607,-0.05613449241776717,0.025074441545947762,-6.482289670825189e-05,0.042826152932128644,0.02130432615986912
2.3,0.5058439919141146,-0.05720840080670608,0.13620158643473745,0.012267816726828355,0.029727230610390096,-0.0024295446239033687
2.31,0.5124180728739317,-0.06203545550570468,0.005260672611666014,0.0037728155370624636,0.02534007529798816,0.0043544899112780075
2.32,0.5053330551802047,-0.06534295104879259,0.03903194683813735,0.016424419910917733,0.035085943128136315,0.0033602130119703027
2.33,0.5008475002157803,-0.05914881180851207,0.027521903555346724,0.0160800205349572,0.03689971554052769,-0.006419436760991158
2.34,0.47094778717002034,-0.0682818772608934,0.011451566624108173,-0.00618607310530192,0.04676633006797213,-0.0027876467317845786
2.35,0.4988470007843272,-0.07121434803332195,0.018296551805642013,0.006886319032523866,0.03997565919315332,0.01575965116202435
2.36,0.4702355959048493,-0.05537961943942528,0.007015485528368472,0.004251717438478763,0.023048657759123767,-0.009325764405933076
2.37,0.47939329651202156,-0.06661397857017819,0.06282315952255874,0.01913107795138888,0.039431337873064284,-0.0024777681927985722
2.38,0.47944970696257794,-0.054176112323508815,0.027137445685165497,0.021600732436191653,0.04393237487029736,0.0018549548424077853
2.39,0.47170742948545485,-0.0689968119643992,0.024859462214773004,0.00929288115923214,0.028926902429249553,0.020636503899511167
2.4,0.48812964280673277,-0.05359556841028908,0.009079525045065335,0.0049894606628784885,0.02995096930103296,0.004774922794547241
2.41,0.4626679260510607,-0.07464261672897284,0.002831699381633501,0.011360751309939156,0.027271490909638315,0.008593311278603973
2.42,0.47618916718372045,-0.09078306276630478,0.028329691843425854,0.011051975080300279,0.013981879724161109,-0.012928714738645177
2.43,0.45775587299930587,-0.07503612359592145,0.024415392178552077,0.01178683753640996,0.029573860738138898,-0.0055319284336678
2.44,0.4450849431242628,-0.08327484124388046,-0.34824101988037937,-0.005610137860526577,0.04016130433288127,0.012061799155399509
2.45,0.4591394385074883,-0.07748772963353945,0.009074220809389896,0.004397390777320825,0.032797375725029,-0.00514296644312952
2.46,0.4585760889350592,-0.08020379308232627,0.015965559760608893,0.0036644599902132986,0.04470795724437405,-0.021356797094348186
2.47,0.4570585583084072,-0.06624814717131264,0.05843970579565089,0.0007253941321764441,0.012434572048972806,0.02317367248421952
2.48,0.4357920767932814,-0.06433823536917593,0.0004249616871271683,0.0047044486855842595,0.029787752368550448,0.006148939657308618
2.49,0.4471657650070218,-0.06462395757691758,-0.16820964605407246,0.0010304403420473489,0.02714921489996637,0.002772448868598649
2.5,0.43017473178927185,-0.07798188541596425,0.044850120973507726,-0.010697798951149435,0.035134569971297235,0.0019317219804830409
2.51,0.44313392605107876,-0.08272217205706932,0.014174998867204846,0.01256333735575885,0.026989765017086883,0.02030703959567861
2.52,0.4398274118776131,-0.08204369711597224,0.05838019696720792,-0.012027631213575017,0.012006533034178181,-0.006455834755200708
2.53,0.4291837511187871,-0.0957389623579695,0.032708462593474374,-0.0054699305444889995,0.034293774942452525,0.02286532566041498
2.54,0.44182841705506676,-0.07592019366981774,0.592260101850507,0.0012131819031073678,0.03573406762355979,0.004230859059024453
2.55,0.41839680124296197,-0.07640063081311806,-0.024228822563410992,-0.0014696791039156447,0.043642021995289715,-0.0038258984326843986
2.56,0.42133028917689935,-0.07375140303641331,-0.026325618750850974,0.007834926411639085,0.01032775090694386,-0.007989705251540991
2.57,0.41544684440659696,-0.06172512273104812,0.02813678409424199,-0.0051211569193093266,0.02230196971874501,-0.004609968188235341
2.58,0.4141863902944274,-0.08298516063512584,-0.044962548405047875,-0.008968898434399191,0.022672030678981835,-0.0012182214154782044
2.59,0.4159680605336759,-0.07054805936419102,-0.0005665971779415567,0.001099727520082638,0.05545406477856895,0.00612138848177359
2.6,0.40471778186496404,-0.08731606110857058,0.007197793649828782,0.003340299896984583,0.0480978686081442,-0.0029239920543188288
2.61,0.3978843232136319,-0.055919094374223335,0.004057480307979894,-0.00524950579442868,0.018546641149298826,-0.014012157254017214
2.62,0.4133690944438432,-0.06702709259058667,0.02165881827963307,0.007894231877824112,0.04124234134459682,-0.007404418816594423
2.63,0.4159269955321854,-0.07719158315412189,0.15071546903332153,-0.00244586049382166,0.05270717963803154,-0.008733935044608527
2.64,0.385260541572974,-0.07386517114491847,0.01629859392855671,-0.012806434260551402,0.024232868902347337,-0.004568680481146072
2.65,0.39510609198068414,-0.07524017295597557,-0.020142353064823232,0.008064014001686087,0.04483015917627946,-0.019918447559874368
2.66,0.39252355446403825,-0.0699086882998614,-0.0064795530780901705,-0.004958249680632552,0.02105915292851132,-0.006255610171098092
2.67,0.41124685332143374,-0.0690667016972908,0.5937358868849232,-0.003952974996070541,0.0171615766454361,-0.00875628285516512
2.68,0.38335391369800054,-0.06631994272693761,-0.015705998699355746,0.016436953427823177,0.04483015838137627,0.0036406216503808916
2.69,0.36702586676358834,-0.06470468020849102,-0.024536974146642708,0.01848311664279431,0.02294504530539923,0.0014411690578842295
2.7,0.37515518517926116,-0.09622411591565533,-0.3096222975464682,0.012711056675096742,0.03723730349585312,0.0017757458452106398
2.71,0.38220442690056644,-0.0546435034652298,0.42245537806344435,-0.0018489223072083822,0.010029216554849828,-0.016681585509662308
2.72,0.3640643527285029,-0.06227043754990101,0.010212598074081366,0.002380872546707411,0.015464786129654105,-0.006669416304964438
2.73,0.39485497715477585,-0.07655174025101014,0.449718403239978,-0.004419995231343975,0.037748372113949054,-0.015795369673195538
2.74,0.36203037334129373,-0.08006381706893306,-0.056938801127454634,0.028091340969670732,0.025589788222405922,0.005362545166737917
2.75,0.36680000750094843,-0.09158863540679905,-0.062434484846319305,0.006179391595155627,0.041718985753928274,-0.002873498008412616
2.76,0.3927957234067506,-0.09637230154056789,0.5381602515652951,0.026521586066581348,0.03585061533061688,-0.024783139783467373
2.77,0.35067444316954177,-0.06268225431051011,-0.05173416587617474,0.02483258657445722,0.03999901795839289,-0.006888527249523328
2.78,0.37901640820711047,-0.06489061976063544,0.4488705155247816,0.009384064302055357,0.02466659645702974,0.0006498913453644554
2.79,0.3580546305577268,-0.08352077901976748,-0.07077882164050772,0.01998089509392733,0.02802396312028399,-0.024998862428825264
2.8,0.33669570722320497,-0.08226728540757582,-0.08206474540014122,0.018392317545652542,0.03241405187525546,-0.012409293324176597
2.81,0.3199224478872331,-0.08545869667342097,-0.8083241181573684,0.007243950418931075,0.02793973010226626,-0.0018595713667336712
2.82,0.3538708272206258,-0.07787377387479347,0.0024553477217084353,0.018925253066225313,0.049943678445994406,-0.009818758036828303
2.83,0.345559910871121,-0.0906845365222741,-0.005108500714754145,0.0131760317374227,0.038451596842186124,-0.0029484510023127055
2.84,0.3478611738029011,-0.10667202288723986,0.03415565793306411,-0.0032159263923606596,0.033219750384633866,-0.01606808752476099
2.85,0.3263345161001603,-0.07772496326215594,-0.0355346326638826,0.024847691518908675,0.03932923766267902,-0.00040506644816663004
2.86,0.352374101603079,-0.08602860924425573,-0.05208865226971607,-0.005277771238448194,0.0311377002608304,0.009606432220944287
2.87,0.31498057040489486,-0.08806341620192769,-0.1448151147648892,0.001893192714891894,0.045967118376758015,-0.006949299879868642
2.88,0.30909511881328383,-0.09463519225035957,-0.011170393369644963,0.015161592906254257,0.021876909280830227,0.00147526196924776
2.89,0.31740844126460205,-0.08885827274369848,-0.01610182628640089,-0.005707337012981039,0.02086029818397892,-0.013253814634070034
2.9,0.32678814232395403,-0.10381169793465256,0.19155049526935009,-0.0005821281719429329,0.03554856251634127,-0.024672451885680992
2.91,0.30471345462277966,-0.0792106609654519,0.1940979319848309,0.01589586302172042,0.01519595109585445,0.015240862845503432
2.92,0.31220494580906094,-0.1243374236584244,-0.014399446391277519,0.001483270119996215,0.012166333555775021,-0.012391814313022616
2.93,0.34102649497548376,-0.12164663160016854,1.092065483502136,0.0024239884532716483,0.03064825743799157,0.014509592859512402
2.94,0.2967651137622037,-0.07727246054732083,-0.09765610677886348,-0.008164904687960719,0.04185107583124816,0.0027156929061237884
2.95,0.3096030145976853,-0.08005548384723077,-0.10547650086841166,-0.005709890612079404,0.022359395738284986,-0.012254324923269671
2.96,0.28286638632995326,-0.09700355404603676,-0.11140800671360192,-0.01410018613422841,0.027723367576032616,0.013631316045693617
2.97,0.29653546768745004,-0.09784036238191769,-0.05797643071592546,-0.005284219720130854,0.006340822582020747,-0.006085013753533783
2.98,0.2949141391127937,-0.09770506959791467,-0.060674811401751065,-0.008664807486820423,0.031043134919894046,0.012385031908778075
2.99,0.30085627762471073,-0.09365069494139217,-0.08607888021866925,-0.003969903192209262,0.024936996551910683,0.0032853425837422387
3.0,0.2832036433081067,-0.10108499689530706,-0.08051157614451411,-0.008254007667547416,0.03713307660956761,-0.01830023410047987
3.01,0.2970549165497439,-0.08325266201292324,-0.0728895252390165,-0.014101906391268645,0.004523466205298948,-0.0021632611255955063
3.02,0.28398467591039067,-0.09262057402749707,-0.35190417603732765,0.00540859812493987,0.02402116715273155,0.003962624856851958
3.03,0.2762002662453485,-0.10967435866454203,-0.020443195382696032,-0.024912776670116293,0.01612166971634793,-0.006283862339266567
3.04,0.3002792988220325,-0.07933072561449768,-0.035527743684668836,0.0034636499092496713,0.03587679682212109,0.003479975400353016
3.05,0.3062751420952809,-0.09563080522490958,0.37758949814158704,-0.0018028325543009097,0.05217798255489364,-0.005540986588468645
3.06,0.2907148964238959,-0.08972521641100001,-0.07075031241224108,0.0034014382454966227,0.053073750382438056,-0.011588551846273975
3.07,0.2609452002401928,-0.08366587398096685,-0.010673757730953196,-0.004694302780993159,0.03744091677246981,-0.012690070557296132
3.08,0.26991305500093626,-0.09339448185895662,0.05619268330339153,0.0018875838663842738,0.040161269273276186,0.019261909631674082
3.09,0.258457151785195,-0.07898178589611289,-0.06304204047709118,-0.010307831902692398,0.028753883270997184,0.014996917813508474
3.1,0.27040474756332356,-0.08760294721655042,-0.07296510637108956,-0.0005469922621882447,0.03214397482593555,-0.002920550179817131
3.11,0.25325843538208054,-0.07101270416377162,-0.4257534868825473,-0.0004874567840772526,0.03183703708912531,-0.007326511735318521
3.12,0.23709404583184193,-0.08565767552911288,-0.007825269329570856,0.011527258714409844,0.024422513394948824,0.020297254914933643
3.13,0.26162587741364235,-0.092146140796079,-0.02274476207216159,-0.004782267257384438,0.0444948943129361,-0.007806720266719492
3.14,0.2603716507638916,-0.10301122990572148,0.6499740217802709,0.0034704171249873563,0.039689998705655906,0.008710264641018733
3.15,0.24074293700984353,-0.08531413756417841,-0.07831112783101693,-0.006783683858834987,0.028474663423376068,-0.009381251382449572
3.16,0.22937530421227,-0.07420793306543877,-0.08721945643351117,0.0013325471468387112,0.012157035113823196,0.004265336225150221
3.17,0.2538985054693035,-0.083826238794394,-0.031277187718028635,0.015610619061434542,0.04075505719737694,-0.005837056254006718
3.18,0.22387237311154295,-0.07828699012265211,-0.05790677983287144,-0.003998113031045284,0.04299130619902958,-0.004437170503618666
3.19,0.23779138890347157,-0.1064049984110742,-0.06773465040673404,0.012777660811915855,0.04165023689082164,0.0059924543386690385
3.2,0.22587127602038554,-0.1005926679275363,-0.06590877435891275,-0.003832820886980103,0.05276327237352005,-0.0077772713874858955
3.21,0.20947452684550424,-0.09169389873154171,-0.07833349007737397,0.002718148865360109,0.027575317077956685,-0.012300719074456297
3.22,0.20734601672230749,-0.09028531057513176,-0.03660444188710979,-0.0054774702504013836,0.028679788175832277,0.01398037672909446
3.23,0.2178424290682945,-0.07921603688187503,-0.041916285460754966,-0.0043777624899763124,0.026569588720707,0.009248056486323966
3.24,0.23942986113126366,-0.07919101975898518,-0.0495458058907367,-3.615155694238251e-05,0.028988988797489346,0.01893714333445684
3.25,0.20231933532770935,-0.10019860112289716,-0.047269898609537835,-0.017600292289110274,0.03750517214465111,-0.009095551478401135
3.26,0.19247046164817094,-0.10951446246896013,-0.05910542240041945,0.004744333326030815,0.01728389887206657,0.012179067176540227
3.27,0.18754141226006246,-0.08574167656639335,-0.7875890746612976,-0.0017332170756270693,0.05212677785285526,-0.014600880079060777
3.28,0.2064812926505307,-0.09064154984052687,-0.0033457730220937953,-0.005081948815445101,0.04112228218463835,0.003455247603867034
3.29,0.1858971732532204,-0.08125500907733725,0.057805523731539694,-0.005358561313023631,0.047345832667422455,0.015460305332196706
3.3,0.185100537528609,-0.08835806179902012,-0.02062477234673767,-0.014390467419802554,0.04025070386044734,-0.007699281402420204
3.31,0.19279868215684115,-0.1036552783687138,-0.03276493730268821,0.0055194983886118175,0.015817556594143745,-0.0027546391976232968
3.32,0.17715234573538782,-0.08024193626976746,-0.3519103869582605,0.006414413138862244,0.030990478208488357,-0.012048058736691767
3.33,0.18201846703905522,-0.08697712469731966,0.002275617127451118,-0.023360469363791082,0.043966553869723125,-0.0035555729746076722
3.34,0.18105086944010546,-0.09307142616566223,0.0031338002987924152,-0.009833746894220598,0.021252245389322404,0.010927947325322263
3.35,0.18512501206596851,-0.09058602857572172,-0.02591020373408727,0.010567972455536628,0.05906616969660768,-0.012103405766355125
3.36,0.16583238201149167,-0.0790889976255058,-0.17005856801627425,0.006709321974058996,0.028016502070543035,0.006845726462344809
3.37,0.17996420376359568,-0.09492183125744537,0.7810204313074693,-0.014690522425363905,0.025090010371596715,-0.0008339898473767849
3.38,0.16190459482636382,-0.06478180859959745,-0.032771087805871915,-0.026894860124142998,0.03931719925661459,0.0006702949405894478
3.39,0.1471682240886285,-0.0921971004968045,-0.02374283883883593,-0.007530055326560701,0.02365730233485859,0.01421365196703732
3.4,0.15195121616339963,-0.0909638831786859,-0.0408390222247671,-0.013101832615142002,0.030868176394208087,-0.002471370122464062
3.41,0.16658375660451197,-0.08440562313287163,-0.054357836813440336,0.005186072718510599,0.013753788540655336,0.009193415503589942
3.42,0.1559729462062232,-0.06903778160852132,-0.002575394143555866,-0.006449648243523388,0.027095260524879552,-0.007350471098892619
3.43,0.14478874681730342,-0.07216309119452917,-0.03960825585804406,-0.0020536437512935057,0.033419523105945044,0.003010384302219576
3.44,0.14614841163312164,-0.08100293770422536,-0.033434659592747176,-0.001615494553509571,0.02494491391396131,-0.006139852762533458
3.45,0.14569908528934697,-0.08382332048086884,-0.03897740240064762,-0.003792862615471581,0.036129365660343665,-0.01904168657537195
3.46,0.13609524495352945,-0.0758927871484168,-0.03282500616156225,-0.00245033563087107,0.035435666352803624,-0.018990859642245683
3.47,0.13340748443031422,-0.07920650668990682,-0.28553132516661356,0.006269289590965438,0.006878772481692375,0.00030155664884199524
3.48,0.14724832927400322,-0.08059331021156667,0.01624635998566127,0.0026970956591723513,0.02477205597981134,-0.0014775077427704357
3.49,0.12035876810565621,-0.08293274518618547,-0.012784101209103546,-0.012970866882799836,0.02016903008332631,-0.02675092344402124
3.5,0.12362323614424743,-0.0685819164004844,-0.004643646064539545,0.01006921226397248,0.04432611768428868,-0.025020581265119433
3.51,0.12820335385336576,-0.08135320102839304,0.5091882668216151,0.015703218695726433,0.027666943406237366,0.006869997459988484
3.52,0.13979001631517357,-0.0956893170545697,0.7503590502739947,0.007214064939198135,0.03309430345741665,-0.015307855202323917
3.53,0.12337407902208336,-0.0669534146783197,-0.30307401240040605,0.009659823575919671,0.033675169585081766,-0.014320113757180477
3.54,0.12789627659367747,-0.0823279854846557,-0.05302059366029037,0.0015862187211897571,0.042990102605490015,-0.02180830816314145
3.55,0.12056722003039999,-0.06696166030312818,-0.06902813772498972,-0.006121926800572913,0.02789884276496509,-0.002759925891822934
3.56,0.11777951688357646,-0.08636114780188188,-0.06168162788077807,0.010425901368136085,0.019276547122313463,-0.02243602444432577
3.57,0.1190900208388819,-0.06770018223941993,-0.018441246887092803,0.009934959426603654,0.028465994565299826,0.01313854938877734
3.58,0.10556929843500003,-0.07301411172606412,-0.03614569054882414,-0.003959123700239039,0.01825980148972249,0.000506318395528605
3.59,0.09089114445274268,-0.08857741490036834,-0.04343102572501315,0.007571735179954829,0.02614330268544414,-0.009629997347938502
3.6,0.10668831092716642,-0.08740235826347878,-0.058927628371753235,-0.002030077561428169,0.031510264094902575,-0.0027412020823867045
3.61,0.09621184122650457,-0.0822233038334437,-0.051966926342282074,0.005769978294511198,0.00987798868222475,0.00017037837052700025
3.62,0.08156513089452576,-0.0888258259809954,0.008473229286508253,-0.002784511841829055,0.014252920473358065,0.003609609431107535
3.63,0.09941962981519697,-0.07303692976824416,-0.0231868783530073,0.007509858836368854,0.0333798406673155,0.0005711494871866785
3.64,0.10251070652736435,-0.09239100115150474,-0.03618262250923465,-0.000681033147103832,0.024521346131470688,0.02120267751439355
3.65,0.09259964520929374,-0.07151299682157893,-0.0431938022051084,0.019244886814926435,0.01799788045212572,0.004235902056243548
3.66,0.08222168599342008,-0.07875659309082847,-0.05622976499266061,-0.00027960802574630676,0.011390924355758161,0.000961695410276793
3.67,0.0976294572782121,-0.07993872071700527,-0.001219584234822706,-0.00023432533442619818,0.021914457368718932,0.008016956363913814
3.68,0.07063129725851108,-0.1029971299575479,-0.002467161158135639,-0.007274017130162452,0.018486093624017437,-0.0007674069687271282
3.69,0.06978476006437616,-0.09085097674348605,-0.03611826780214531,0.008584686986614043,0.030364738923372703,0.0032090771830811738
3.7,0.07121055432475751,-0.0728226812533035,-0.0257677983083711,-0.0051250882642556225,0.02975770223199547,-0.0037069690822790213
3.71,0.08707295427541083,-0.09579093159046391,-0.04626159975322944,0.007805469357701755,0.020248582914885346,-0.005832735569342882
3.72,0.09469793280302251,-0.08788903716839361,-0.006493846785095896,0.0042577139867701385,0.021455824185397984,-0.02812218488230779
3.73,0.08312622044902682,-0.08308479484801133,-0.011112019833480116,0.00012490740326012882,0.031621723711938464,0.009375077407840934
3.74,0.07324851061915806,-0.10505934444284011,-0.025755694451281414,-0.008348953024484601,0.024145659828637183,0.013865020104229464
3.75,0.07566638904642492,-0.09928616401090284,-0.032239152294893214,0.0019245198562695526,0.03780451771740421,-0.009404667372040282
3.76,0.08016949533031337,-0.0947742847963359,-0.03959959747145962,-0.005521617236987814,0.007907545201663098,0.0032983832520451445
3.77,0.08028114267450469,-0.08627278012897577,0.002303947060272064,-0.01581750363294098,0.025614742774122467,-0.012730699810229413
3.78,0.06373736430837398,-0.08080462063115514,-0.01657557029578069,-0.002598716021784671,0.004842476102230696,-0.0007965412588845961
3.79,0.04934324743321481,-0.08634208864634083,-0.06553319534230792,-0.0031529682095330336,0.015394345808783017,0.002862221777337734
3.8,0.04609469338785865,-0.08408063321092081,-0.046640142940709374,-0.00836750601649252,0.0032766494055488926,0.009261318648156611
3.81,0.05995472216035042,-0.0918399488730058,-0.03278804339122167,-0.005549353626890161,-0.00014554849267046227,-0.007334500304749229
3.82,0.042560480888749946,-0.0894027930039008,0.019755610483151678,0.0011217491061317302,0.014107016592398474,0.019030821670641223
3.83,0.054740910794057775,-0.061606685472952165,-0.003427858189296844,-0.00011204397264664035,0.011588944678177025,-0.016389770727279377
3.84,0.0517045442233215,-0.09799847497648709,-0.025685313334336775,-0.0008798012463669324,0.017912543084988602,0.012179616172153906
3.85,0.04648777421064901,-0.09094651393811128,-0.05519007574477253,0.005139189348654151,0.04768338753018854,0.0006405158111768431
3.86,0.04652341793543498,-0.06814405954223288,-0.04083908988249498,0.0014482703761812701,0.026115048971151824,-0.0029504687187751253
3.87,0.05179469052674659,-0.08416203302776752,0.007817089473467341,0.004290464761171912,0.006689754378626215,0.00984906122499441
3.88,0.03314190519259593,-0.08685028958438909,-0.014243838316011871,-0.008336845913262739,0.015218031822110338,0.005814469491046133
3.89,0.05138297303879111,-0.08388859997752815,-0.01959547035304035,0.013852956939574666,0.01853544658222838,0.0003539492466213597
3.9,0.05349811604413932,-0.10455046977700959,-0.02648632433241784,-0.006027717657369879,0.03530552023104843,0.0005728958811109265
3.91,0.05264280557461741,-0.06768271943941166,-0.017247712955866138,-0.003712345794480332,0.033075998424385356,0.008527731724281468
3.92,0.0345979400438376,-0.08788903241741858,0.010809111292507825,0.007866491941805744,0.02323235860237047,0.007787127642509375
3.93,0.03491585521905406,-0.09310184124666845,-0.015745323617655134,-0.0046723721036335784,0.035495451645910565,0.0027852300974882584
3.94,0.042854002102796086,-0.08311066924559955,-0.010083493772583902,0.012757770483902402,0.02942619702524689,-0.004002259297834777
3.95,0.03744680995326859,-0.09164033297816698,-0.016364848895035478,-0.010664619953146819,0.017460120779275817,-0.010904385328888138
3.96,0.04025667263755457,-0.07956226043222375,-0.025830542989409892,0.0032668348988665686,0.022707741970404725,-0.011906280614509289
3.97,0.034176966813861585,-0.07384309280279786,0.0022203486910929437,-0.018762981644767408,0.02092339290085094,0.01561897835798782
3.98,0.0023639964745306302,-0.0886376743541444,0.01014215468051753,0.012289162352568833,0.03588181968071015,0.006255979336400522
3.99,0.017858223037400763,-0.0759522768539628,0.12870508945183767,-0.017141222452035365,0.018432428269727158,-0.005925693352155863
4.0,0.026147807976847327,-0.07914577024985295,-0.35430228776315326,0.0015453195420059105,0.020670990905842512,0.020853136455326153
4.01,0.004437765490577377,-0.08614914809610696,-0.03084533467341527,-0.0057229617164622874,0.020595464040453856,0.002684698648308296
4.02,0.01682444199881341,-0.07295857409663464,0.031007966560380643,-0.006896289435708479,0.014010356675961401,-0.007934633588787482
4.03,0.006649220120716822,-0.0908598828103155,0.010157938665256492,-0.005258748373529087,0.00901870481584478,-0.00331433060468847
4.04,0.019093681995721104,-0.08135521489887804,-0.013213613123269118,-0.020190038457477386,0.01998025896902171,0.004404871289074254
4.05,-0.008584263089814394,-0.08658679744443606,-0.019297361119718234,-0.007978301948912327,0.012075832777815407,0.023640143391978258
4.06,0.0048442865135974855,-0.09382663723176397,-0.019949191236373204,0.0006796287394849906,-0.022123748555265485,-0.0037499435543603445
4.07,0.0012299703261633007,-0.06962046148032693,0.022345281133992218,-0.010554036811068347,-0.010884417182929672,0.006864888379578612
4.08,0.003343780293433621,-0.08683159221879211,0.01920957104713966,0.008900270667556874,0.012552552804934114,0.003193927183931397
4.09,0.013162939272898445,-0.07992598906253726,-0.0144530174542306,-0.004066445532523818,-0.004396472230391333,0.011802265839130764
4.1,0.010212357640208425,-0.07758773941755284,-0.017005668391699858,-0.0009777323548600051,0.031232322546425002,-0.020345140544508457
4.11,0.015111491680644004,-0.08301308762359813,-0.02739910133985012,-0.008233764047597831,-0.004282241860758637,-0.01720491311873057
4.12,-0.018801277444569033,-0.06677325359759603,-0.16354699089796332,-0.003869996777080339,0.006095410347280719,0.012145884752961963
4.13,0.023484996816701364,-0.06285423696496964,0.3090681648976182,0.0033745342219564842,0.020157828669673944,-0.0056215577344844924
4.14,0.009965498239656792,-0.08190546407255442,-0.0319375280035151,0.004920249115982055,0.01181821755955851,-0.008593735273199041
4.15,-0.002400523241027677,-0.07362165274019411,-0.028761363219542375,-0.015640840745240407,0.015140332278413889,-0.0016791669783271085
4.16,-0.0024136993219395705,-0.07564369569591471,-0.04751747635892332,-0.00202688862486817,0.013313515121201904,0.00786411085474678
4.17,-0.0007829469790746209,-0.05721514169368158,0.024845634486729176,0.009740646320802512,-0.0018860224941146435,0.003015261331461177
4.18,-0.005856638429016346,-0.0834063756342046,0.004853044503154086,0.007878147557057912,0.000331124644514574,0.0026079768534771454
4.19,-0.008299891218994968,-0.06291860260444011,-0.014917349230548937,0.000695696935665359,-0.0016251909030674232,0.006322740792743866
4.2,0.004409635577025905,-0.07975091437042318,-0.0177880536525563,0.002150904818335781,0.024686357270855767,-0.0016181001944005507
4.21,0.007017112939468604,-0.0826203838549141,-0.03396517738941991,0.00431347976565293,0.011821689009688694,-0.0014176705628922686
4.22,-0.010417011291161992,-0.06838399302954609,0.016828774042835615,0.0036034265885688914,0.0008316304915252874,0.003698852103512622
4.23,-0.02428847204299951,-0.08170458618739153,0.008070943405891939,-0.0013306423502716198,0.010862234871476317,0.0043899180878318326
4.24,-0.021937683611401592,-0.0698038342955572,-0.0076811361856346265,0.00484094712700737,0.0034538232134897137,0.01084124603778824
4.25,-0.027866138686454746,-0.07383604069941352,-0.018589553433077607,0.0005141195958587706,0.01908389160256302,0.012790441001329991
4.26,-0.011552629997188198,-0.06817660627330761,-0.037439561382181005,0.0022596065137180984,-0.004984933154046418,0.009164199049881219
4.27,-0.016440551862493727,-0.08240370260159822,0.02770986454824319,0.00971856711702253,0.002318043594761481,0.014632239079333993
4.28,-0.0029434347671795976,-0.06871221013650922,0.005552884429951374,-0.007289033788056764,0.012199846840673975,-0.010965512937151046
4.29,0.006586286699858597,-0.07242673292531639,-0.006766562620500675,0.008374280773976601,0.009181767897994053,0.0022848345220311955
4.3,-0.011229487883623998,-0.0962902659399289,-0.026690176170540522,0.0009034916660298218,0.02909216351009587,0.003525608397825575
4.31,-0.004782056805910668,-0.08308279027542553,-0.03512167740707146,-0.004119129296077737,0.01090354015820212,-0.0036650456993935804
4.32,-0.02080882155401565,-0.07486338365272857,0.00860411399030148,0.01793004367001849,-0.00017170557726695502,-0.012732900704685478
4.33,-0.02412662039893657,-0.06764251300097432,0.010224185909265954,0.006401055892873041,-0.003571622363799579,-0.012774559570366379
4.34,-0.007457420935332074,-0.0718715194639207,-0.6754801303698638,0.00450818187896318,0.0061250178624337554,-0.022108733894151196
4.35,-0.015822747307938565,-0.07836404081208813,0.03115155239102658,0.01910032619721817,0.013105755409889975,0.0009384279601824079
4.36,-0.0361008142164408,-0.0825858633559374,0.0030396777384485473,0.012250362639029165,0.016163904548145567,0.0017471300760883903
4.37,-0.020642548777354074,-0.09159939517471434,-0.15309905717503156,0.011432007870757134,-0.005530790229970885,0.0031922040289349973
4.38,-0.02060417474972454,-0.07719689667693355,0.03731861518345417,0.001877335472467873,0.015241067798744977,-0.0014594689133560269
4.39,-0.03196491056222075,-0.08935818467540531,0.029271044591518025,0.012954268265683489,0.03143745140205523,0.00024044971843592577
4.4,0.0011630285746752136,-0.08108644457676431,0.0185961769066314,-0.005651175603144598,0.014399951334486788,0.00811786021715992
4.41,-0.00742667677054043,-0.0901735878403714,0.006109002323809251,0.0013603149578544698,0.0019304860319562997,-0.005785355831415819
4.42,-0.022346142170349498,-0.08997175918638481,0.21394098752067037,-0.007027808086030993,0.02146367186241186,-0.02166153524132651
4.43,-0.03346867002927272,-0.08760342691569745,0.031089128685801562,0.006976041386106802,0.023407972399583733,-0.017149760693589353
4.44,-0.011960318200126083,-0.09057783318475882,-0.4539557492666415,-0.010144871474654166,0.02041515988192263,0.0013877564116119125
4.45,-0.03473838934925032,-0.08865077915682218,0.031116932328054507,0.002534667235764423,0.02021676795947719,-0.005333423130382464
4.46,-0.02881657666240115,-0.09823692504095188,0.03307101110882778,-0.004300868216547438,-0.02244885826649599,0.00995948505686816
4.47,-0.05049255857116197,-0.0924953296902551,0.07468587087511863,-0.0018362368494606613,-0.02110949103205377,0.008267734541475783
4.48,-0.023989127494515972,-0.0875243138009388,-0.2753716719576907,-0.0007379786841375517,-0.002887293095814645,-0.00018285453843778403
4.49,-0.032611536061718134,-0.09086362866988092,0.043126358390025675,0.0007976971207602657,0.004141475152528662,-0.008366942018827702
4.5,-0.044058410685130736,-0.062253559746141204,0.0406503210261157,0.0038956916556804845,0.013316194862289295,0.012816079623368176
4.51,-0.004096920678185612,-0.08463759124356851,0.018245930865802548,0.007897151359717537,0.00465610561720659,-0.004794665683223967
4.52,-0.03474918683391879,-0.09867449266580783,0.048670301481489875,-0.003088502350301961,0.00546929726251439,0.0034150304161627747
4.53,-0.030958897204621656,-0.06319676620897861,0.03275303289137288,0.015581067001626113,0.019300006155291274,-0.005210901372339015
4.54,-0.03177763529302051,-0.06724356906768368,0.03965151724276146,-0.0076265658872800655,0.011556748514178374,-0.009149011590756123
4.55,-0.04518743788730009,-0.08740455608049207,0.07385856801759023,0.009658384496912434,0.0037140288396971272,-0.00695806429692233
4.56,-0.011539358620046597,-0.07290169265970722,0.014822289341394712,0.012724303020192895,0.003053149049818682,-0.004918094534267697
4.57,-0.03627459934736346,-0.08266179986920577,0.03572929568280692,0.008065795230709123,0.00849729723818238,-0.011617558015516456
4.58,-0.02639255999247283,-0.10218094029544325,0.05341395624560328,0.03177764928507989,0.011002820562647194,-0.008698064207020165
4.59,-0.03275125313749816,-0.0712530628958135,0.01368536212543112,0.033736404238791734,0.02551766845112017,-0.0035516373314475906
4.6,-0.038139623803248,-0.09033722891900316,-0.004410487020150469,0.01419162995477367,0.01402744711088539,-0.015183313217492805
4.61,-0.032616643874723586,-0.09068840178524554,0.017147865417608585,0.026858244317972478,0.012242736377693134,0.007882933088487502
4.62,-0.03261778281858352,-0.09228066507655057,0.05087104946684069,0.012914320942101525,-0.006231678896727433,-0.006135600638268528
4.63,-0.02371095136741569,-0.08486250889669772,-0.26323016267257476,0.0034556898705101645,-0.005157167598955502,0.013226375348607898
4.64,-0.04753898157655559,-0.09190514665684979,0.020454743093996093,0.003617262947069347,0.01776306270425189,-0.011080288037539267
4.65,-0.02294690288807963,-0.1037607922087897,-0.16758364015718585,-0.002065053329271013,0.018547420905255123,-0.0077368454708449524
4.66,-0.030456064342026655,-0.0900901356475485,0.028640149181960412,-0.01484869481776352,0.014875912250077493,0.01733750358839901
4.67,-0.06060351497635101,-0.11036284684044825,0.0535040969282508,-0.0041945082891205,0.002326493138111772,-0.005667666567742425
4.68,-0.05544280737907874,-0.11003649073779748,0.8831725754265495,-0.0024777997919917982,0.003958613584862632,0.008448704079514393
4.69,-0.05268921569978651,-0.11123841949534445,0.0015455492953796845,-0.005222659015924471,0.01992528429657406,-0.005942970778943365
4.7,-0.03605461596574611,-0.10298221606300624,-0.022182533045865815,0.0001807298149494158,0.014572887204750345,0.0054284939206121294
4.71,-0.05332707373954118,-0.08567818560968676,-0.016111589449154577,0.00193143555705474,-0.004828536097735484,0.0004949223195230823
4.72,-0.05794004900441309,-0.11350971359535032,0.03523483062151341,0.005266904443696783,-0.0060359612549118515,-0.01851755988353566
4.73,-0.05322351167567861,-0.0926499225000616,-0.0026220478953850705,-0.01788770346730049,0.004646778575632288,0.007082461884204371
4.74,-0.04105854648180533,-0.09196087450701909,-0.2236779410809404,0.004012013474393417,0.01247272025912656,0.004719428916788367
4.75,-0.04477563984122212,-0.10305057221825696,0.0025862091795638455,-0.023448550878150818,0.01415790061440209,-0.00844290387894079
4.76,-0.0657031307908277,-0.09281727854251694,0.02616938067548354,-0.011731121499800328,-0.01826967653654136,-0.020598224697512234
4.77,-0.045801887308318585,-0.09033653371313011,-0.6453547265914314,-0.014501763022155292,-0.0064703941124330385,-0.0022979248066055235
4.78,-0.05029161390006828,-0.10162069361436755,0.640764114601578,-0.008389666808326667,0.000982017336059948,-0.0038302276686837567
4.79,-0.03455732231492664,-0.10444302765641657,0.015535533211715096,-0.0014018993513170595,-0.004200627838295418,0.010813390573536027
4.8,-0.0418328177103954,-0.0890973663933628,0.01882941857319666,0.006103852281173359,0.006326519369897117,-0.016106117775361486
4.81,-0.04859965354592206,-0.09929592799163638,-0.0009568155623168781,-0.010678801296977163,-0.0010662940250877493,-0.00706325477202934
4.82,-0.04447909419661207,-0.09486119135994352,0.5442570354902452,0.0029029452554031583,0.010132310279420789,-0.008985776263417395
4.83,-0.045544978963112305,-0.0835393886909325,0.01120386166663871,-0.00824235020015572,0.003362968515926645,-0.009908768388808834
4.84,-0.06452268559155691,-0.09482959610330419,-0.016492207939610027,-0.013128060758731363,0.01635232693341289,-0.005463364350934629
4.85,-0.056699940061921805,-0.09213883503627644,-0.019337292239200915,-0.022381602009122807,-0.00394116781077555,0.012533818769611717
4.86,-0.04228495898408334,-0.10241816471431223,-0.02137281878653689,-0.022722371564690234,-0.01178762822149051,-0.005031834359098046
4.87,-0.050458127951895713,-0.10600830789393448,-0.02602866514950641,-0.014539989568924843,0.003378492168287468,0.00043348737188715126
4.88,-0.058720528282332665,-0.08680992860137504,0.037697803773481364,-0.0040620835485226554,0.0033022918999334166,-0.020512165433758785
4.89,-0.05436872393009579,-0.09295625284939801,0.008126153323482665,-0.015554157770429266,-0.0049023622106562645,0.008953228707331718
4.9,-0.05026756076200712,-0.07538301770361056,-0.00797086332956899,-0.022161812762183847,0.009913181940624747,-0.010774328208109647
4.91,-0.022670906019148677,-0.0679786126654216,-0.10834012538964012,-0.008161507173906912,-0.008467597927941311,0.0006685923078582042
4.92,-0.032013412765872655,-0.07606435014064335,-0.7269955158052261,-0.0008231365423469125,-0.0076585964188611785,-0.008862631099690387
4.93,-0.03777428269874497,-0.06992257698379199,0.05357152996171795,-0.02056869640106175,-0.00655551820951872,-0.0012934010504529303
4.94,-0.04204774218648282,-0.09014044122041899,0.029946626695128785,0.006435376049507696,-0.007524298317457653,0.004482780877675511
4.95,-0.03635519964353312,-0.07106615218114644,0.02240256127737315,-0.0026379593806147754,-0.002327306885603033,0.012570624493922994
4.96,-0.04447453025571542,-0.09809481466131999,0.13376254898420456,-0.006421470158848891,-0.014507676240384813,-0.013059791390546064
4.97,-0.04383173199418513,-0.08548422689494221,0.05234636403888106,-0.0006529005710330747,-0.009482434747110536,0.012573635866768447
4.98,-0.0412499052149589,-0.07959131364301873,0.016677419226908328,-0.0007801552670982385,0.0063435082199909615,-0.007156967069153906
4.99,-0.04475121946726348,-0.07807560186921576,0.02185076504261343,-0.0014620119475067573,-0.0029711311752886036,0.004065735786951708
5.0,-0.05372012304195404,-0.05841231197760214,-0.004733871864072021,-0.004411713234191228,0.014794484368872781,-0.009031890832273456
5.01,-0.050828452996056935,-0.08294086152181306,0.00759115461587306,0.001692734019159765,0.001652640383578795,-0.003195072472390219
5.02,-0.04122313200667507,-0.07505173849674465,-0.03705813736452629,0.0040996817379064885,-0.004665946521185668,0.0029477134089217587
5.03,-0.04819836390015372,-0.08810297611642132,0.014365262143144122,-0.013984192960454868,0.01603379461123825,0.000369253484305519
5.04,-0.052990857853699495,-0.06536656289832596,0.01265324958190577,-0.0015000180584021704,0.0036577942275287587,-0.00394802191905168
5.05,-0.03249193964079537,-0.0709787297588408,-0.008305757950204846,-0.008330960363019484,0.021451911909526677,-0.009873485668724355
5.06,-0.04308368907562037,-0.07520196804509936,-0.013447948890909603,-0.012519577381788497,-0.004752203343925131,0.006059379695359994
5.07,-0.06319733304627745,-0.0723891621519234,-0.33855142868535076,-0.00033836122890009324,-0.00872467565478251,-0.0032543585854938038
5.08,-0.041594783603262395,-0.05848136311279517,0.03708392839116322,-0.0014150308021280177,-0.002837651477552789,0.0006384991538827104
5.09,-0.042128437006657596,-0.06257644253108692,0.03918442890338846,-0.0027367110071214863,0.010671340625706616,-0.008914696498240417
5.1,-0.047177668609987365,-0.0799382975869364,0.017954084425565703,-0.00945646424650121,0.005372244571721049,0.006937229430615955
5.11,-0.04771947132767007,-0.058323721568243246,0.017694506367424374,-0.0023411432386458856,0.0016896872863182378,0.004148669901850415
5.12,-0.06551093784800008,-0.08596951761930971,0.055653405023953814,-0.013676749226762692,0.0010075203565423723,-0.006075030765778606
5.13,-0.047003200671735544,-0.07361990927012974,0.03943362036911992,0.008790525516877255,-0.002312924465654691,0.0038879818115477725
5.14,-0.023250365470926806,-0.07972984155603191,0.00741760647202748,0.007154298555526286,0.003683614394903908,-0.005798026257193719
5.15,-0.051951982223897596,-0.07777806011269384,0.011255413039874087,0.006568777693188092,0.011516291951734077,0.008338979634079875
5.16,-0.06181298077757608,-0.06676534960158365,0.0130363526975223,0.011183998797511635,-0.008624329290348494,0.006798691840066588
5.17,-0.05045086902304988,-0.07956384356635834,0.06081000533923091,0.006424717151001945,-0.0019174509306521107,-0.02331947212682311
5.18,-0.055918041557926026,-0.054409882525627576,0.034048698055099844,0.0036996794818435624,0.012643067548620952,-0.003738465334209651
5.19,-0.06383578663752651,-0.07137802182494776,0.017156974190604145,0.008679105566441749,-0.011885241499833436,-0.014267368653430507
5.2,-0.04758122829303006,-0.08813714564933384,-0.0006409977180695785,0.018841130607377066,0.012885428743911225,-0.0025578149779089936
5.21,-0.05184582849206267,-0.08545117543017225,-0.24274800509273578,0.007365505875303488,-0.0008701345138334054,-0.0007355697338910939
5.22,-0.04517144527715993,-0.05724226299288427,0.04915718044135779,-0.005397054504422714,-0.01026935036092205,-0.005081188673230095
5.23,-0.07066850618255728,-0.080974792782458,0.030041049838749476,0.011361958321691769,0.01098158335174953,0.0018408560921796117
5.24,-0.04384951730327118,-0.09821484159005409,0.025149360780554658,0.015357123688166576,0.011176707131466537,0.008464432940949262
5.25,-0.03942184381807761,-0.08440126606155693,0.005287448504674094,0.0059290970424671395,0.021393259068812096,0.013079711387509888
5.26,-0.06274946180679825,-0.09755025417125701,0.027936851881177,0.015698738963565943,0.002113818013820396,-0.0030594783027347145
5.27,-0.03987769085145633,-0.08142958679670603,0.06775598822043888,0.007738732258339159,-0.0026477443682658137,-0.005260997810282787
5.28,-0.06307223561639504,-0.08761177835516443,0.03301116490168667,0.010187562635708518,0.013787271125813362,-0.008700876017079065
5.29,-0.061569920743106,-0.1007394154100908,0.030469778874500614,0.0021339992386988885,-0.004615225402058488,0.006052389441391139
5.3,-0.057972406196768696,-0.08448428129619817,0.007754622696593855,0.018356392060398186,0.012089162741113109,0.0025425865553767406
5.31,-0.06945106606901673,-0.08248237611057745,0.020776426704272776,-0.0050676585303824975,5.2103613526166895e-05,-0.004794123576835559
5.32,-0.0782264563360381,-0.0948715068426614,0.06362777474652458,0.007603494325658542,-0.0004542934049400903,0.0127603896565682
5.33,-0.06146085853639565,-0.07061834582016005,0.049313037134329094,0.02845546181216615,-0.009606684850474095,0.005575007652401274
5.34,-0.04413582920740562,-0.0851451933627699,0.0005500564344903675,0.007460159436871772,0.001737985315503657,-0.0004222692266029151
5.35,-0.06490762142359259,-0.07542473432964093,0.18359072869142665,0.015016907628337448,0.0011116885141409108,-0.00797483464410551
5.36,-0.06771968743684151,-0.08597480256770827,-0.0038090433250805595,-0.007768844429357675,-0.0034843416248317204,-0.004410436841465304
5.37,-0.05409430570184262,-0.09864248985817065,0.053839249742611874,-0.004835773281989994,0.0021100280176198677,0.011034301580783869
5.38,-0.06567920256029859,-0.08843080599967423,0.02052744659180809,0.015524581761449826,0.011219835964007434,-0.0066377916950101385
5.39,-0.04134958130560754,-0.08693215876163965,0.00756444168412659,-0.006002208030417105,0.0038593912257867532,0.0009731267163448237
5.4,-0.06668348384142271,-0.07772775323968477,0.007892776579122723,-0.003797737884564425,0.02238665326174133,0.009128874822747442
5.41,-0.06765425793218588,-0.0819258751724184,-0.02017259206124536,-0.012422427053194674,0.005006553528813407,0.0063776883746906035
5.42,-0.047820333734194725,-0.08639204245503619,0.1272428505235128,-0.004473928203111294,0.0019334257593856402,0.00855732114849172
5.43,-0.05642998824408324,-0.07896353405301085,0.012675503133640156,0.015331083819592264,0.002759843368837534,-0.008310898248200629
5.44,-0.050023945739842014,-0.08264823349524017,0.012959087008256695,-0.012202098359844999,0.0078051047524878465,0.01311279937618676
5.45,-0.04731928020758625,-0.07989486873805329,-0.013786737938308799,0.010620824892698787,-0.0033701378578647346,-0.021366549492419187
5.46,-0.0706887559910711,-0.08937813064382424,-0.02544771002081678,-0.0018797226666662503,-0.0030016317809159637,0.005599584807377935
5.47,-0.06450971308331156,-0.1024753450315888,0.025046557623862063,-0.021696386415668355,-0.034459869946235636,-0.006776829755360374
5.48,-0.04594974799745985,-0.09226476365618279,0.031751186537722055,-0.007160609044491006,-0.028751312548040198,-0.01279275311758416
5.49,-0.06760239115864537,-0.09994345065067303,0.5802038668864314,-0.005495427646670572,-0.015868776187297935,0.007055276807033833
5.5,-0.052911310276022736,-0.08730457259556662,1.9312480957446132e-05,-0.006216929055203966,0.000116426150388949,-0.0014012168550305844
5.51,-0.06842109560784415,-0.090192745418659,-0.03136055009752795,0.000783049880144736,-0.02013988272064269,-0.012707885776018118
5.52,-0.051902722701473024,-0.09132257077272604,-0.006326857146829127,-0.018577270109559386,-0.00999010478349299,0.0007583892221279633
5.53,-0.05175005947772602,-0.0738685028288879,-0.0035033993729098197,-0.00577620669145948,-0.010925584421850924,0.004583502322524646
5.54,-0.037650049780055275,-0.07620895619108937,-0.0129220727756818,-0.01950928436184772,0.008444812618155918,-0.002782155402371904
5.55,-0.05100540664141067,-0.09421623947406803,-0.030251592927314056,-0.025916610303436362,0.005152210169747763,0.01060593514671196
5.56,-0.07376947506077512,-0.07934117284992806,-0.030844627414030837,0.005718800625042823,-0.012365047075203747,-0.02542350340565882
5.57,-0.0585196230850772,-0.0982151290948988,0.875350647136899,-0.020040665315856535,0.0007639154580337849,-0.009149336476718003
5.58,-0.04833146360458892,-0.07632428426795111,-0.24559166221132347,0.00620327558305947,-0.006573472454167699,0.008325560242825302
5.59,-0.03868722234578287,-0.08986767877693567,-0.03336214768385805,-0.007345926211068486,-0.009840005187587859,-0.002239099929883573
5.6,-0.05038146782988916,-0.08450937980319682,0.0011155081787531953,0.005671853596272742,0.007641871780072916,0.008507025232803757
5.61,-0.05193724693011874,-0.07624947484605339,-0.025547388139316136,0.01305484153638891,-0.0017970322955947445,0.021683364471720767
5.62,-0.07263184205816421,-0.10279152693867971,-0.0008314355787427382,0.004888561059792011,-0.005796916981543708,0.010448264085096394
5.63,-0.057686733071413976,-0.08334774175527072,-0.008917599478855953,0.017499964027650274,-0.012801982099248802,0.00398511167167518
5.64,-0.05338852574826627,-0.08054422338474704,-0.024570379149302,-0.015909913321081333,0.008984883546941241,0.006575665015725041
5.65,-0.04893832000351544,-0.10159199144255186,-0.051318957754353585,0.005426942403889953,-0.009940240769330262,0.01391815810741206
5.66,-0.04008033137713536,-0.10276458722152482,-0.045145830241169416,-0.001381969194609047,-0.00934170655936661,0.008459145740041675
5.67,-0.05317694809031828,-0.0838829938556873,0.004249754089611007,0.0008781474526534695,-0.0010140550371685376,0.006390499969816101
5.68,-0.038240654827307916,-0.08384777684525958,0.002631626437870665,0.003280070325971323,-0.0127195229310454,0.012836258687737252
5.69,-0.04039424091724625,-0.09140027591353614,-0.003636412434747896,0.004394391097872713,-0.0056800351588777165,0.010544877305938127
5.7,-0.05766015793403058,-0.0851889204640712,-0.04904448728762587,0.010366852278513148,-0.0033835713375560336,0.02017659523671414
5.71,-0.04728731770015425,-0.08538598783451848,-0.031174504829084935,-0.002196221669694765,-0.004669217452204014,0.017654901031488444
5.72,-0.028015002814936737,-0.08808164785844892,0.0018397575663513998,-0.012547818911732615,0.0015332716372028982,0.013980659843098034
5.73,-0.03931044785506637,-0.08196592940403652,-0.013139894589687654,0.0009644630893983755,0.0007232091047607158,0.0009333310898340897
5.74,-0.05440182838087176,-0.10049763521481903,-0.03557684760717769,0.008912373164351943,0.0017763937977869303,-0.007707698692039123
5.75,-0.06021628018913015,-0.08833879748372217,-0.017473874847905593,0.003401870190299935,0.02011388999092538,0.0035538848425966446
5.76,-0.045858300351498904,-0.09031334395002755,-0.03547183823791325,0.003246189006992149,0.026580735529497943,0.014593313714463166
5.77,-0.051475417982061476,-0.10076456100033684,-0.010054796268010119,0.005369495821797548,0.005754640219679566,-0.002080651589216538
5.78,-0.0346599878403232,-0.09103347933428253,0.010233973182211985,-0.016540124388244513,0.021972769355331444,0.0016318334281781293
5.79,-0.04384015945434597,-0.09857917061850427,0.0009408963893894513,0.01098285535676479,0.017549973213905827,-0.0040615472542063075
5.8,-0.04226241071688328,-0.07511936393933846,-0.024562557505518775,-0.009001425016567765,0.008072926865817147,0.01938721985945718
5.81,-0.0731803526810298,-0.0775643968913286,-0.020419942541763745,-0.03814208172031109,-0.011193447259790299,0.003214183864181925
5.82,-0.06481696662234986,-0.07281696466423652,0.5027819601499108,-0.03171361634883121,0.016567752807372254,0.00593645249967023
5.83,-0.03755139073701731,-0.07575792264328922,-0.04256529978866741,-0.01888709849855804,-0.002481240897030521,0.005223948843440232
5.84,-0.04400431303334695,-0.08214935013732662,-0.031424439391535136,-0.016955572247321804,0.006119359402592974,0.01182041242005386
5.85,-0.06555152744543594,-0.09268388178506493,-0.06421115422798401,-0.03238112983746865,-0.004826096812911223,0.011123782397657487
5.86,-0.0729973817988123,-0.06033988827061261,-0.04465828747093399,-0.026648676466138402,-0.00880798401358241,0.0008420174108035973
5.87,-0.04826888232237474,-0.07055943947398885,-0.017298238263526403,-0.005886558650114429,0.013289122995961916,0.00021777438143152222
5.88,-0.050857677508150574,-0.07381190335579328,0.0014358257772979915,0.00013832377569831904,0.0036570190867700227,0.007699056967369402
5.89,-0.05235090087274079,-0.06546491560197919,-0.0432852338277236,0.018148596582178392,0.0018139488890295875,-0.018698184253124278
5.9,-0.05514674474972125,-0.06992055450805061,-0.02462432694188501,-0.009870237684192908,0.0075454047848246076,0.012008158696876964
5.91,-0.053961124433340835,-0.035651201220527076,-0.4939595474758991,0.004690254409216421,-0.02778553803483213,-0.007712538404020601
5.92,-0.046610248324372286,-0.06915795163597777,0.6624037453435084,-0.006403326103841213,-0.02237161752649971,0.008147232305941771
5.93,-0.0613906639115186,-0.05735596368309191,-0.012535909307834986,-0.008189207934670109,0.006424726054811468,-0.017790756693563267
5.94,-0.04112904161983306,-0.06127900978225409,-0.11355302219115788,9.532821652966301e-05,-0.011361364155357882,0.014795091000594455
5.95,-0.03345854070825742,-0.07103288280411257,-0.04222491570256096,-0.016470200473237846,-0.007265274287020538,-0.007117868305925615
5.96,-0.039233756321308225,-0.07660035417406257,0.0033134192787800127,-0.011457926046460011,0.005749726919490796,-0.004317187093818778
5.97,-0.04653273204536835,-0.0432907838860036,-0.010322639312536377,-0.0012345698811491402,0.0069819725682314995,0.0003177443305071254
5.98,-0.04972241613366012,-0.07553628729821471,-0.022671017603567753,-0.008938457872323433,-0.012536101710739433,-0.001269555548067256
5.99,-0.05056751546138315,-0.05947336351292604,-0.03356226060809621,-0.0024915025348505038,-0.004417199260795854,-0.007019090610359957
6.0,-0.041404549652532416,-0.06167781554379948,-0.02832013569426091,0.00350254549142254,0.003027218295330873,0.001000055770368364
6.01,-0.059255804865921025,-0.06402512566224544,-0.023792887240388527,0.002854643225308728,-0.034005825210951086,-0.014324354861062379
6.02,-0.07478426186333606,-0.0583595670240049,-0.004669438525557723,-0.0011304744506992646,-0.02873508402015089,0.005728206847191999
6.03,-0.03824745257091314,-0.0685414782342562,-0.008305865376988138,0.01243574983649282,-0.011201606856660318,-0.012097854908818385
6.04,-0.06935426451977211,-0.06503447582695254,-0.031171533290080967,0.009782559752601387,0.0017911286802593856,-0.00951955081326848
6.05,-0.023782035008329316,-0.06499633075966034,-0.03468096423510597,0.0051126793502437855,-0.008907177219890334,0.0012375106012241601
6.06,-0.05697050014431421,-0.048752503804082185,-0.04190867422138712,0.02775599481790849,-0.00719171054492186,-0.008376667517187485
6.07,-0.036908125042810484,-0.07838826445268564,0.0037293064119233183,0.006311790823703992,0.0014517781599760532,0.02314238929000603
6.08,-0.04772577614328113,-0.05616125860920107,-0.02412924015905305,0.012153712057704448,-0.007352020007103719,0.001672129403113327
6.09,-0.04748087977386627,-0.06475019139856944,-0.017386034099520716,0.013860898407693334,-0.008032495096958935,0.007716138369375657
6.1,-0.04315731508407114,-0.0792890490818821,-0.04573203632754955,0.016007644028872746,0.012396035386674645,0.0016727109136866417
6.11,-0.03906011077070884,-0.05982444424112912,-0.05120808940463601,-0.002098202331905925,0.0010995665600644364,0.0010911389717409127
6.12,-0.028872212523706357,-0.0648628649497613,0.008939318013743593,0.007056881281680423,0.01685715782543814,-0.022068311383011775
6.13,-0.03645172482528228,-0.07466792479345816,0.005924294564191846,-0.006054271414356521,-0.007056497248770653,-0.022026919622434186
6.14,-0.05196761062258263,-0.07491629102687147,-0.1338724705394831,0.00380712756681772,-0.00755391986186276,-0.015740077430679462
6.15,-0.04302562608943867,-0.08279071786394837,0.8274347595848955,-0.000605312534096453,0.01648072081797666,0.002758433431666386
6.16,-0.03816252730605288,-0.07408059490490206,-0.0852414478126663,0.00399152636561525,-0.0059948238528846984,-0.012814060598314844
6.17,-0.04760548022218778,-0.08677897382176901,0.2326201655787428,-0.0023247183247753784,0.01646411619629274,-0.0023881582074424044
6.18,-0.04533867457257315,-0.06323096292226574,-0.045040012984317784,0.008497484460919764,-0.017148269557876093,-0.0014761492047286958
6.19,-0.05500759167626127,-0.08313698862803981,-0.057532791890265784,-0.007770453384550911,-0.01098665459255836,-0.004363301233921955
6.2,-0.0685320737496996,-0.08012624511379092,-0.06775026892225816,0.00870249091647542,0.0010041439177313127,-0.02763928502019004
6.21,-0.05878004045179039,-0.04937337781124555,-0.07902267791385749,0.0046238039680384395,-0.006382885031815198,0.0010450965277447165
6.22,-0.0422845073591033,-0.0801171733624465,0.0010266133493280205,0.00313360801586543,-0.004274746356459799,0.0016361833157701629
6.23,-0.03953812643153942,-0.06970240857465229,-0.036314362990495896,-0.003319629813501367,0.0106521780797941,-0.006385800212646189
6.24,-0.05387457467445202,-0.07604367511698658,-0.04913900920075089,0.009448354698046446,-0.007629057591931485,-0.0026987419198039875
6.25,-0.03022285258666071,-0.07611000332570496,-0.06572645425713447,-0.0015096761748348525,0.008968748916893478,-0.006008080489992176
6.26,-0.04896692602514205,-0.06528985871463469,-0.06345669178880999,0.003525130672801029,-0.029492071228672735,0.010335264027288831
6.27,-0.031236709730293598,-0.08335275165494449,0.0015694631809555354,0.013980442383664925,-0.0199510188541617,-0.006558621269875785
6.28,-0.04644269726034614,-0.06669467617833857,-0.06154240592622891,0.014879234764278127,-0.022892674699512287,0.004123367229743737
6.29,-0.05199523292847652,-0.08112762317651832,-0.039653658529809656,-0.007914106831134908,-0.008652277264565661,-0.017381527269562148
6.3,-0.0500228043774642,-0.06735125787037569,-0.0498530721900196,-0.010106198260294552,-0.0035441107273022107,-0.009821383316137666
6.31,-0.03214055277506752,-0.07177239579139245,0.5130560691227061,0.012154167339923153,-0.01962445036702983,-0.0066056229614979865
6.32,-0.031130885895895768,-0.07763167888690997,-0.030285190029153187,-0.0024800255247924207,-0.017083895786287717,0.006146924278562511
6.33,-0.033896229131647276,-0.0901552926947577,-0.034812186922847016,0.008213490126808597,0.00038283471089344684,0.007824169698876645
6.34,-0.026249138884604957,-0.0786335578412332,-0.036686057946860876,-0.007162656712061186,-0.012079870078715032,-0.010123903627955236
6.35,-0.03406966603450872,-0.08214225673362648,-0.044048908648829085,0.0006301713682167523,0.006526735563213709,-0.0018901562162718776
6.36,-0.024053353756358496,-0.06731593999928658,0.34116082310513113,-0.006686674658989563,-0.02272051577777244,-0.01080873670042517
6.37,-0.04022938519257835,-0.07301070729373679,-0.04210947945518375,0.0030371067456869726,0.0065439512991919465,-0.009087609661776602
6.38,-0.038046445625911314,-0.06953112393447024,0.4648615497608818,0.015432544818233317,0.0019435859716809886,0.007881198291090965
6.39,-0.051407482420506107,-0.07604974857393763,-0.09007007468638074,7.429697571255845e-05,-0.002197843866912118,-0.006091378901490569
6.4,-0.013775515194925576,-0.07870427622275906,-0.10222885187419178,0.008050466723002584,0.01875815377116418,-0.0011725044252947278
6.41,-0.033898968745700364,-0.06971767737783124,-0.09565653616593392,0.015401955681873244,0.0019384505880417034,-0.004268518545209333
6.42,-0.009700706791548004,-0.08352903023727187,-0.05496695647394603,0.009755179488301945,0.005696966223107138,0.012415716959106166
6.43,-0.01865901186368985,-0.08162801308983281,-0.061866574044500786,0.017079767171864442,0.025285288732037545,-0.0012792375992700068
6.44,-0.03784547627884834,-0.09488216012400467,-0.07510671177681945,0.020882609288993353,0.017107286091550628,-0.004507218926579513
6.45,-0.026554511645147712,-0.07112963040395061,-0.06057595502517943,0.010092650111828434,0.0056165563851235814,0.006187038282546488
6.46,-0.032029306751363826,-0.08777980156021847,-0.07402535163671269,0.01776156775506278,0.006644886056323396,-0.0034906117220615067
6.47,-0.018956313142020335,-0.08729724475442659,-0.03945493629068127,0.004219853936017437,-0.01547063454874826,0.006293516302094888
6.48,-0.04053511439068555,-0.07305293351049051,-0.037140628135523594,0.01796673478650851,0.0025419489333220785,-0.017751675356795112
6.49,-0.019549927994242614,-0.08089748988559735,-0.06198406691297324,0.017457978255536886,0.012052084629528788,-0.014212625471854347
6.5,-0.034458940150836836,-0.10054284194543589,-0.07953090604281825,0.022874621671545425,0.008954993423785954,-0.0041450884819276045
6.51,-0.03640285440849535,-0.10502055292683987,-0.058507750725795116,0.010123043652381944,-0.0033689208782309915,-0.013695841051249413
6.52,-0.03997254667219692,-0.08530898939020598,-0.004925080552268042,0.008674188384132012,-0.01333514468690416,-0.0016475972107808162
6.53,-0.018649287843060698,-0.08913299353176526,-0.038616455068150264,-0.006568207339810544,0.02127163891745043,-0.008702934570439611
6.54,-0.02815082912255734,-0.10336136505959956,-0.04869772132467404,-0.01263918202265382,0.008530711892154406,-0.013485479592205293
6.55,-0.04051001436182043,-0.09814886426258505,-0.33781432722947224,0.010604158428930744,0.00191827455917613,-0.009579029368802013
6.56,-0.043238502706949684,-0.10812959053054243,-0.05411850215024899,-0.00014194968677072508,-0.0015381949175431702,-0.01669370409268716
6.57,-0.041703297272858576,-0.10356758954036482,-0.01644238806904047,0.019075184396994085,0.003941989169623711,-0.007740286432000073
6.58,-0.029984936530095627,-0.08860397503719611,-0.0057725168754616946,0.004680847522366513,0.0017466541254016177,0.007035498653276211
6.59,-0.035225869910802454,-0.09960529529777666,-0.03419321077074457,-0.00883086172679819,0.0012998924553119604,-0.0109049947511471
6.6,-0.03871051323570588,-0.08341084664291212,-0.04861013603514369,-0.00812835908747052,0.011367374556505069,-0.0021230352203898697
6.61,-0.0371854427391229,-0.1029366274625435,-0.060068149032140014,0.0069809244561616505,-0.007727859216251151,0.0035770556491773547
6.62,-0.037353499328675675,-0.09278543536172047,-0.007079789109729681,0.005170112994296013,-0.013152055062299854,-0.01427193444580408
6.63,-0.041789968471066585,-0.08663200519022127,-0.018964090390724234,0.004539912850348165,0.009533308692316856,-0.013793808240300477
6.64,-0.029864717262690885,-0.0977389422564954,-0.09095170019238835,0.001140919435904297,0.012185516873515887,0.00980614980003583
6.65,-0.021474669599150124,-0.09886520751579123,-0.038563089620506696,0.012169851547066736,0.004808799910196407,-0.00928636163969894
6.66,-0.03758976377427065,-0.08761124885170306,-0.04590234759245854,0.005597156050892432,-0.003973364974394306,-0.007815693517458127
6.67,-0.03823133801884984,-0.10048158068275428,-0.018999365407871907,0.005924557149609681,0.010064867011838972,-0.004772562793289228
6.68,-0.03208203888563766,-0.10666039181664495,-0.013821746834532899,0.0030183129654759774,-0.009008250159432497,0.002601584151042478
6.69,-0.039713165026014116,-0.08317226533896395,-0.010589011820809794,0.0061864876830353775,-0.003985318745599044,0.013254026715350161
6.7,-0.037505132361263724,-0.11345171048804875,-0.035455644003621056,-0.004573604028646295,0.004760535925780379,-0.0027186701815219753
6.71,-0.05023792729404882,-0.10262279672881457,0.015359300698448609,-0.0062368836128572054,-0.01306920126161199,0.0054469192772849395
6.72,-0.04192612625642418,-0.10081930103620507,-0.00023700078583014153,0.006413818501629498,0.0004613774348467723,0.019087595698347556
6.73,-0.04834603565829862,-0.10860421878506611,-0.020611218882033714,-0.0014647945876362695,-0.008815574734642466,0.011422824654796103
6.74,-0.04317473620528986,-0.0998284019407657,-0.04272023816266584,-0.005398469735146406,0.020920892268439826,-0.0002056671102383359
6.75,-0.04012147329114922,-0.10183798258542946,-0.034237755437717614,-0.022698046150813122,0.021432027006481533,0.02458614493175732
6.76,-0.033954403126264125,-0.0978777591035242,-0.04012070352887387,0.0022446958791850578,0.018011692873218008,0.009072820705592306
6.77,-0.045787034046808124,-0.11235414835632856,1.2345292336450515,0.0038187078303464736,-0.009813584904864408,0.005649070491255492
6.78,-0.04974790743795132,-0.0988560074913067,-0.08734988878720701,0.009261882000518763,0.01573805818819131,-0.0029504393112759347
6.79,-0.06356613262821237,-0.11598025114819015,-0.06978729550086676,-0.009390616373604763,0.020309545469991756,-0.0076952196418144155
6.8,-0.025390567820647903,-0.08642120937816039,-0.08640235940233028,-0.016311957990454935,0.013666299490293304,0.010475029592264973
6.81,-0.040818457018148895,-0.09908848379348739,-0.08991015553264571,0.005208547062605265,-0.008918403600452878,0.0034141899712496304
6.82,-0.034779965278102044,-0.1001440952122455,0.4125954143815256,-0.002424898295619138,0.026004681419760332,-0.0004015255757213341
6.83,-0.03526427700325206,-0.10195475130850178,-0.051027874179756766,-0.020743290452911515,0.022531055349981066,-0.009645425931395567
6.84,-0.05555766702011632,-0.09864508320013504,-0.09670539405307209,-0.00808326916900171,0.025684758622264773,0.008101720607745014
6.85,-0.04368783157901814,-0.08014083793565792,-0.7494244127014602,0.0038812938677049488,0.02312712223176789,-0.016918464152088176
6.86,-0.05198710809382471,-0.09142604317957362,-0.05012555648944176,-0.0017854723049299782,0.029577238643379394,0.0020558681366728824
6.87,-0.05021728372054857,-0.09331612573585886,0.26922692814866317,-0.01319515308415224,0.0071301227402895346,0.0001247657295744976
6.88,-0.057445320896499334,-0.10446384501975696,-0.06134530608065422,0.005120684111379084,0.0037549891125682484,-0.0025023933284494936
6.89,-0.04389033838425706,-0.0801278297853076,-0.053885125178384695,-0.017889956086150564,0.0014995482169769068,-0.006719540296339653
6.9,-0.06353915848693867,-0.07976325778620605,-0.051906549948927266,0.006819258073639202,-0.003350999562847583,-0.003376956470085816
6.91,-0.05263276857217876,-0.08909572238831846,0.06680036777645672,0.005761943466440531,-0.012584687099736187,0.013246323590114505
6.92,-0.06127088564670785,-0.09606665455989065,-0.028225942637727874,-0.0013039954164815945,0.002587640016746636,-0.01222801543037578
6.93,-0.046694511993823566,-0.08783118203695937,0.019570728970109825,0.01009065449495022,-0.0145392889915051,-0.010713905245043696
6.94,-0.06399930031603386,-0.09067643713035088,-0.04516228056619868,-0.007786825098766351,-0.0074087819715901206,-0.024782501547683744
6.95,-0.06297966622467105,-0.0783327641901248,-0.49430225499044006,-0.0024281803256922096,0.00212532073370402,-0.015001037524949464
6.96,-0.05908949830032736,-0.08773751188945535,0.1984880752527893,-0.0029449804424538702,-0.01681609460010597,0.013868190817485148
6.97,-0.05616088626203759,-0.09912777594463809,-0.006986125315932972,0.011411154509587941,0.005610325380295208,0.022909995839068345
6.98,-0.059983940819624965,-0.09608024267954907,-0.17081387070247206,-0.002325650941895988,-0.0017022559732510533,-0.02092377513395273
6.99,-0.03655049810449756,-0.08506807475246377,-0.3144277355468992,-0.0006112295258012183,0.006001809709299392,-0.0036883727831283544
7.0,-0.06185653840302745,-0.08851055971913424,-0.02238321272142584,0.0028199016814179426,0.010844074685890881,0.0017375796809617969
7.01,-0.05357434540544749,-0.09228951590799722,-0.03059200955358302,0.004815420290629827,0.019323191905238978,0.0031065942346778343
7.02,-0.04400699471402209,-0.10000331567820787,0.006441949723215716,-0.01675960504921549,0.006632265810977113,0.010172442111172842
7.03,-0.048088126884141436,-0.11908011150951653,-0.017675818718827015,-0.0028476877127778704,0.010198319096804057,0.010255170089732412
7.04,-0.06123988686642058,-0.10773880609164427,-0.025508472209555752,0.0038434627857300376,-0.0022889599172625646,0.004200606275735054
7.05,-0.05975988326078127,-0.08414580346172587,-0.02276360997384398,0.0011014331744744793,0.022215471409118295,0.0009539846203632059
7.06,-0.07231268737917815,-0.09916596689101258,-0.03970641339688259,0.015619387384217705,-0.018232563738690134,-0.01695755176180124
7.07,-0.05709060333538209,-0.09893707802403777,-0.0013678290202402427,0.007669489756492627,-0.0013208771518369924,0.0024747761498303536
7.08,-0.03938382061295524,-0.08120880238133138,-1.039824271466767,-0.0040901325972386325,0.007930294778202835,0.0001998061578378712
7.09,-0.05665250737864284,-0.08226472792709151,0.03663207668046604,-0.01176401512996824,0.0004145949785831014,0.0023698245143762902
7.1,-0.07335171382467384,-0.10696277987325876,0.011898350504179313,0.01035400423598421,0.00629729309079218,0.0022609483449131332
7.11,-0.061496488603099204,-0.09525236049818181,-0.007793096395768407,0.012943466590615413,-0.01616304336751958,0.007377652185844536
7.12,-0.06443452836078327,-0.09792990674735788,0.04030247697979377,-0.01623817361125149,-0.008898949765146841,0.003304020149174234
7.13,-0.08081428744547454,-0.10657674516507899,0.013781457807070595,0.007986718492722335,-0.014130254934764802,0.013027072940358419
7.14,-0.06831072356111136,-0.1056383196992117,0.002618326249678357,0.028696716468664757,0.0034165590901929278,-0.010534369189151904
7.15,-0.06286229196409308,-0.08324205977092344,0.20057971870833,-0.001940966424311387,0.006142909074177423,0.00857675820717306
7.16,-0.053733597095859564,-0.08357781311113978,0.07346267232472665,0.00807213378362402,-0.005045351754499939,0.0018259921344116032
7.17,-0.05340145005550603,-0.09787140122000856,0.14137186246634065,-0.0012118887488012514,-0.01184518460142376,-0.000958924954371226
7.18,-0.050878874987508496,-0.08797433016417366,-0.011950842385699503,0.01644588437763629,0.0075757857343044625,-0.007534316495260235
7.19,-0.07496822914947172,-0.10621275379604841,-0.00014552013201580075,-0.005006262641262198,0.008428639216124807,-0.004453874435821752
7.2,-0.06992729749444782,-0.11084016954778551,0.13084751798284178,0.020997060320403202,0.0009826430022233297,-0.016204625114296635
7.21,-0.04739609841818622,-0.09897686885459898,-0.04112388714247486,0.005242216943555635,-0.0032276626848437282,-0.011297390342416466
7.22,-0.07428423106693596,-0.10216904356584229,0.640836537721148,0.016613386995642115,-0.011106940366045486,0.0020481417237513833
7.23,-0.03915380023562243,-0.09446617952150368,-0.03798758938546161,0.00718859151708828,-0.007136513829335362,-0.0016627471523099104
7.24,-0.07174831532383943,-0.09784056946867857,-0.02334673541165684,0.00749253745144291,-0.0075056183672878,-0.0030664731550690797
7.25,-0.04867291596215491,-0.10184500097382503,-0.033232216848859124,-0.012625810216323596,-0.006934529464394614,0.006309228545795817
7.26,-0.05477907904008235,-0.12333928302277303,-0.03574846575253078,-0.002152856260074682,-0.020650886791039852,-0.015157784447025707
7.27,-0.06307640579232543,-0.09991994083123519,0.010370506545066712,0.006974611869561591,0.0017509518585348688,-0.006973282314205456
7.28,-0.06454743300625355,-0.13155442770656614,0.2066208812900932,-0.01536659269982657,-0.007419169496389977,-0.01056040496510487
7.29,-0.06594567952728554,-0.09626948990420751,-0.0349441015062129,0.006005542724812829,-0.002974781591051351,0.008443383562545126
7.3,-0.039491050332507036,-0.10153193406948763,-0.0432627845076957,-0.0028892371622855208,0.002059400862558272,-0.010208553598982964
7.31,-0.0722070911077187,-0.10618084578223141,-0.08097620423555471,-0.007849653131159231,0.009183404718492655,0.009883668300947742
7.32,-0.05915790164428752,-0.08475370739494002,-0.0035198048544744093,-0.007893702307278308,-0.03275161623599779,0.009509392952873962
7.33,-0.0524288121072995,-0.10467120010294367,0.2593668849936206,0.002812678656459031,-0.016930870102517495,-0.002846094770775856
7.34,-0.05082095037160558,-0.08002806175035196,-0.03475226169146413,0.00014481638182888175,-0.011267900401545397,0.006009850846565228
7.35,-0.034719519275426075,-0.08962875530424212,-0.04567159444306411,0.010307497595880594,0.012266476888934435,0.0013127401053118772
7.36,-0.0670962187194812,-0.11316581200466215,-0.06365935062753456,-0.02062644697376175,-0.006695976653683697,-0.0027771262164681468
7.37,-0.06028882919269941,-0.08262776488469789,-0.005040814773383547,0.01998187701622073,-0.0035013221464715,0.009285969248662568
7.38,-0.04461320640884836,-0.11602589555390425,-0.01062748076205686,-0.0007731774736252179,0.018270962149495425,-0.0036873006923100952
7.39,-0.04748429744184299,-0.10190028867568944,-0.03581358271162399,0.009039394573159425,0.00591250514059186,0.008500933743445733
7.4,-0.04608189577694538,-0.09621749225064712,-0.02807340361751033,-0.014246988387833417,0.00022878205199932267,0.017210463578983756
7.41,-0.04406847783476516,-0.10365533199049355,-0.040970741704162796,0.005978894224358438,-0.017095744831171374,0.010465873843795439
7.42,-0.048200714429915886,-0.11699197453706059,0.43700370871225025,0.003111403113401072,-0.021867857022194858,0.002040867177209409
7.43,-0.04940048506252234,-0.10947968218547763,-0.03286961868165669,-0.006697544531070583,-0.010957403499218834,0.003215154516463425
7.44,-0.039706272920054096,-0.10440294264650962,-0.03783611750927268,0.008736549828228243,-0.012235710056490991,0.008243148398881942
7.45,-0.06307285420197946,-0.10259836726567513,-0.04888777336707771,-0.017035223360975262,-0.0031271029545809487,0.0017095637697214202
7.46,-0.04115095744482985,-0.11145236096093457,-0.06277645708287508,0.005745563237279812,0.006108573759372172,0.003380407526597573
7.47,-0.055080426945042754,-0.11380405860592793,-0.006635678098062999,0.010921848049975999,-0.024563598399948622,0.010859506482963473
7.48,-0.03968751259158104,-0.0877855893863396,-0.015693688112687516,-0.010520195900874963,-0.0035648460392134727,0.0016078082785531593
7.49,-0.05651632731071752,-0.09973724063688602,0.30945603119999376,-0.0027406577639202904,-0.006735143497947823,0.003683735534630016
7.5,-0.05372241734205224,-0.09406235930325195,-0.03753178093324272,-0.00836628788624215,0.00517968306313783,-0.005227504792129729
7.51,-0.05444718911961732,-0.09787117732950625,-0.07001340131523595,0.011774091916875326,0.002520823504431016,0.008056137670314326
7.52,-0.044186725539116935,-0.10178942429105456,-0.2723353434774655,-0.004031979849941942,-0.013936859165654696,0.004295256096850716
7.53,-0.024760656722691125,-0.11120555871778541,-0.005761712990628154,0.014622180349340912,0.013556904809809273,0.01253592167008348
7.54,-0.041339524619102855,-0.10361626998494221,-0.008424958142423819,-0.0021327434009154184,0.0007657691007316688,-0.004425478475991131
7.55,-0.012807795461369044,-0.09398980321432068,-0.5718676721478059,-0.01677680344216949,-0.006075550004315113,-0.006118075325831483
7.56,-0.059461300938889045,-0.10586057450050301,-0.007317414908555242,0.001867807759263225,-0.0010798356877557876,0.011241515006646038
7.57,-0.027731190132952457,-0.10649824542608832,0.03188217448856497,-0.012055803464526095,0.010149764567558554,-0.002449605257638342
7.58,-0.04226361189424259,-0.08915687036503692,0.007011147359821023,0.014136232801209413,-0.008307991692378707,-0.0031376875173280672
7.59,-0.043613740469219064,-0.11308698418461938,-0.027956820168530842,0.019056215717740334,0.0035563102663905884,0.018496020964886967
7.6,-0.04771792936294499,-0.09747262865030551,-0.16258582635236438,0.015316240282780395,-0.009865897322486319,0.013322678210514556
7.61,-0.0454350190564251,-0.09972723358406765,0.1191752277062899,0.0025695196033103896,-0.014081382989094764,0.012478192000433683
7.62,-0.04291314068505552,-0.11927827922255305,0.03276772157079148,-0.013519182046246365,-0.016538393787618556,0.007717727971110604
7.63,-0.03379109497652695,-0.08645737276664178,-0.0048348775283605355,0.005056064845635923,-0.02631404477936792,0.0029099969492719807
7.64,-0.03699124957186835,-0.10169628855733087,-0.0036452636072852795,-0.01662844253452014,-0.0008206348788110437,0.008034887696072907
7.65,-0.056133158409238194,-0.06898633564308601,-0.025398666269216864,-0.0052101091091794486,-0.001387522605252333,0.00813274303803699
7.66,-0.03384173377736662,-0.11546705673731086,-0.02559542973730452,0.004467295775757066,-0.006549317274434475,-0.0060561173388319475
7.67,-0.04960551804107977,-0.09554735271751098,0.03256198846311795,0.0017248776063130446,-0.003677228232691709,-0.014156965115934051
7.68,-0.045881229428960155,-0.09225257856011232,0.006466633765102751,0.005317910972354016,0.005008879097458294,0.01907375625106151
7.69,-0.03828882017679876,-0.09968693420816231,-0.025700956759187345,0.0013908795131224597,-0.015853258577154094,0.01462911251796385
7.7,-0.038087782644527904,-0.09451651923657382,-0.027072945292513098,0.0009909770902776886,0.015521181081388101,0.008593980014587384
7.71,-0.030766156690029748,-0.1156969656587948,0.14855314251210155,-0.008230616960865203,0.000750516658611167,0.0038007437976244067
7.72,-0.03220280489528147,-0.1226277229810036,0.017289609893473484,0.0018666124411144713,7.011840299846845e-05,-0.002544270752112012
7.73,-0.026114725910418315,-0.0956306728402067,-0.00167437642317592,-0.007566674203268498,-0.009278745047860058,0.020972644796301777
7.74,-0.017944456657464428,-0.10462255993396455,-0.021429528013026708,-0.00028510279058217586,0.0027984788020282776,0.010711817495798137
7.75,-0.04734595931125423,-0.09925117879452047,-0.09267796027970927,0.003026501993956091,-0.008114591499100822,-0.0031301634384120983
7.76,-0.01314383016042689,-0.11805008391812524,-0.010435949572721197,-0.010729373238052183,-0.016595754462046978,-0.005661070077228377
7.77,-0.04437268052275718,-0.09479676965566797,0.02764296552283894,-0.008860720351464891,-0.017309260062338294,0.008689028183622136
7.78,-0.03368119837103691,-0.12485130576938876,0.10864805793988297,0.01572925698463816,-0.014950970041560424,-0.007229333327015112
7.79,-0.033130914350480795,-0.10891260262570229,-0.010170426172053333,0.004122017647514858,0.016960053075805413,-0.0203394060807641
7.8,-0.037736834167698866,-0.09605054616199594,-0.7582331013844469,-0.006123476211084919,-0.008179053833708193,-0.00475532547655011
7.81,-0.012436419567323335,-0.10767910691335116,0.7153357101265063,-0.006757112057502628,-0.010874516913787689,-0.00400312810754736
7.82,-0.02707155381846637,-0.10462717066815133,0.010561150345120448,0.008851627256571199,-0.002932934162961622,-0.017402216012370665
7.83,-0.018572718205498814,-0.10661848306520968,-0.009962090711073672,-0.006698639141273222,0.016039711341488568,-0.004184728222247145
7.84,-0.03381374348140593,-0.10026384243816032,-0.02163420883144314,-0.009014015707023995,0.016507971727237274,0.0023519429649180787
7.85,-0.010250709162303577,-0.12239832982245512,-0.02584622271872898,-0.00842785042777402,0.014344878410983006,-0.010051152199328358
7.86,-0.02247211845028144,-0.09455340206676709,-0.008398149901667467,0.0028446879656057757,0.0007609382000644421,-0.0007984041975177566
7.87,-0.0300435646044526,-0.12122867773554247,-0.009144568184704962,-0.012128426374295358,0.0018901325986891045,-0.022227857346374464
7.88,-0.03517334933590587,-0.09304706381547248,0.0012398389744283887,-0.019731579797640973,-0.004395103084649353,-0.013674915364776148
7.89,-0.027060424615656054,-0.09730773313283847,-0.020187595781847055,-0.023254080840037078,-0.0018877299604110036,-0.016159048484514646
7.9,-0.03882474082630122,-0.11834541945735169,0.15529395063699516,-0.0036172575258094633,-0.00832540977865212,0.0014346921679962597
7.91,-0.032749718114447844,-0.10740068153968081,0.2069093043080452,0.0008097443804271102,-0.0006087829989060607,-0.00010857776224631934
7.92,-0.03816967827879683,-0.09134770368884326,-0.0018857174546089575,0.0033982102645470314,0.0029293876342789743,-0.002303515467806494
7.93,-0.034775686579561045,-0.107187615424724,-0.0030220651364421033,-0.019680688552386718,0.004187669791107931,-0.003010097972797079
7.94,-0.03009995233024335,-0.11517548382629267,-0.01815760499456549,0.0017501298844823498,0.0027962116758411,-0.006244641679233557
7.95,-0.026817912860271256,-0.09676528659203795,-0.02192967888322691,0.0024207166400160383,0.022638452924510274,0.01507679090592539
7.96,-0.03389583828839922,-0.09085893064000669,-0.03577037977458775,-0.010866792602736989,-0.005292214033946228,0.007025308820293832
7.97,-0.023527549041018656,-0.0994315781721883,-0.2662692206778532,0.01607933028396698,0.0037008852682637195,-0.004263269762944885
7.98,-0.04816791306168906,-0.10065689158435878,0.01153871978602687,-0.00479010847593229,0.0056938367799445454,-0.0043939617078684896
7.99,-0.041937429425704435,-0.0886929554315552,0.0072527034707937504,-0.024165291577187827,-0.005014957565724533,0.003985182930487521
8.0,-0.02944618636624782,-0.10026957849076737,-0.01214923560846426,-0.0180262665518712,0.01474239893308602,-0.006698750228855418
8.01,-0.02797570660436051,-0.09261059949070802,-0.21129557177758976,-0.009417688153751916,-0.0045740671608753315,-0.012480552382265007
8.02,-0.03533245422083646,-0.08566480485499078,-0.5716706869417736,-0.016625202899782122,-0.002876636611958523,0.000461767072024148
8.03,-0.028305073790094473,-0.07585439542931373,0.03924939627058785,-0.001635727653074244,0.0010673689007804255,0.009734999006778019
8.04,-0.02921912790871716,-0.08001829600564127,0.037904187064306503,-0.002250190676117662,0.011947999015059,-0.0154049393217905
8.05,-0.03991819973337135,-0.08758332741236816,0.02280286363399002,-0.00955536094384438,0.0017851289169222495,0.0001680352103592365
8.06,-0.05126023706616394,-0.07382989886117677,-0.018599929663247573,0.006383572129371323,-0.004266156723373014,0.009380594521819366
8.07,-0.04350657709697036,-0.09001452489958885,0.057694515344857006,0.0028926992627453926,0.011942386885630166,-0.0042990608024578245
8.08,-0.03974613328919036,-0.09342869961337096,0.025297006545460347,-0.007088812240418551,-0.010263157975016023,0.00509147308967468
8.09,-0.04011826721666797,-0.09448608402787925,-0.006863457091625898,-0.018238744124182152,0.0018763201609828372,-0.020036480409707305
8.1,-0.044172241842388923,-0.07512550415022069,0.003196579574870259,0.01124666894915336,-0.002169453528411423,0.00023679840020312832
8.11,-0.029123714942649023,-0.11505955217459775,0.10572941194620299,0.007321872540574226,-0.008493257257355297,0.016047081720832745
8.12,-0.016922769503268164,-0.07145723791371268,0.03624358752098072,-0.000669765290912941,0.016661926684062058,-0.006278906195766832
8.13,-0.0424885681090952,-0.08670559061197908,0.018342767541398266,-0.005888984785592635,-0.009948607560042703,-0.0022244784179524845
8.14,-0.04707356108881321,-0.09522363347976949,0.01835460761278022,-0.0015412054163322563,-0.005031663098220588,0.0014955533986178745
8.15,-0.03508077448710364,-0.07609171948982274,0.005471742108473739,0.0071371740746329826,0.011143451233447083,-0.005620505550393321
8.16,-0.044739974210965996,-0.09126145425615877,-0.01646713417913187,-0.00265550581425379,-0.010130252303447582,0.020581524801107136
8.17,-0.03701905467583413,-0.08484929471912571,0.02754384809589449,-0.00644499308570898,0.015243832494756972,-0.0014369855007533784
8.18,-0.02805127829902806,-0.10018443951430148,0.03863414671253454,-0.014873833089663618,0.005471679883613315,-0.001295571781287893
8.19,-0.05341676360811383,-0.09349026295617378,0.011861417011602697,-0.007739994403587966,0.01235169108498084,-0.02883788332258082
8.2,-0.03669575320811319,-0.09523147112539025,-0.01175451238184183,0.0058857485301100744,0.007454420798541663,-0.002969821367034291
8.21,-0.03949429847842344,-0.08262632903416041,3.6241002424768076e-05,-0.0011828250786299933,0.005104753122515493,-0.01965798352522892
8.22,-0.0343096037859197,-0.10495747588645225,0.04124422692754038,0.01162173376445691,-0.00699992969023142,-0.007767216578327021
8.23,-0.047793449686794984,-0.08157461500350978,0.02436107186063136,0.0028734077859567664,0.015748393151099403,-0.0027726402012371084
8.24,-0.052220787916761637,-0.09042087296015174,0.0038822770377797064,-0.003392818987254821,0.0018051979044632943,-0.011871036685627273
8.25,-0.04771044749149259,-0.0968198793510474,-0.0078099240925499705,0.0033891995418127104,0.024614127080374762,-0.011778671707231842
8.26,-0.027842998535890263,-0.09020774367359823,0.012676923206111804,-0.01301687197692279,0.0015401711458874938,-0.0066257630377082825
8.27,-0.03631055547941925,-0.08577182431605065,0.02951628929700064,-0.008535911566854635,-0.006565410017918371,0.005339118476897895
8.28,-0.04575134105922212,-0.08095524545595072,0.01355238811916299,-0.006339734513139173,-0.006150962120650595,0.010927085084875877
8.29,-0.022402780348848274,-0.10023160156766352,0.01037793685836414,0.003428251242613931,0.005218528304873628,0.009355451952647018
8.3,-0.04650396976656825,-0.09815392538335256,0.016203681587390908,-0.010025041152905903,0.014289288769773853,0.00017445538686105926
8.31,-0.017642401550448595,-0.08842501224949112,-0.008062487450745219,-0.0016929895618787586,-0.002144220856902927,0.012391763046492955
8.32,-0.05168250822268391,-0.09513908953229097,0.036021862448493244,0.007397271045344696,-0.002534089299758676,-0.00808782151147058
8.33,-0.04093624316118795,-0.09628982458463833,0.03581579758087246,-0.007350710299690231,0.004043829114043031,0.002852845641384788
8.34,-0.04351711333792962,-0.08553647409340583,0.006269485770188444,-0.006140620113204442,0.007169158105014636,0.01342263709656546
8.35,-0.03438993506881025,-0.0855294587418981,0.01628347332881095,-0.006573106110384975,-0.0051720400112657905,0.0013695683406347058
8.36,-0.05159366754028767,-0.0824623680030388,-0.0011975837411373758,0.00966930721523004,-0.0030851152480700977,-0.0016049527785605717
8.37,-0.06520184016912847,-0.07050338525685257,0.05326493756249334,-0.005341112601671992,0.00122527172711028,-0.0021666145932645216
8.38,-0.04348698695196718,-0.0865150803893019,0.012014681430023934,0.0013428090261052854,-0.003421580706164405,0.012821752775510304
8.39,-0.036405145336762534,-0.08633498747530957,0.0014512077303435152,0.007228711566125085,0.013431840617949716,0.0007843211817279696
8.4,-0.05836545183930564,-0.08799652299550124,-0.0048999634968377,-0.0008184253780758937,-0.013977148185625184,-0.0012906454639970617
8.41,-0.0524843415706665,-0.08970008083944521,-0.00028723600968033787,-0.0008202299535584401,-0.008254120856635336,0.0023343633397241463
8.42,-0.04569883937195683,-0.09237864375899074,0.027052652505103962,0.03657597641407053,0.0005519723688954181,-0.013239431149094018
8.43,-0.03629906659789138,-0.09106007379196587,0.012683353001136006,0.027105448562948182,-0.008009748178415939,0.0038356356128110246
8.44,-0.05410970254617159,-0.08798918453131621,0.1080941256375484,0.0022307456147172946,-0.01141755954927919,-0.006537876264576141
8.45,-0.040982843891481,-0.08569981122775944,-0.003415244074440097,0.009651359278076296,-0.0023025918919459274,0.0011925532176538416
8.46,-0.035814119594581646,-0.07835971524166568,-0.016222323930339067,0.01955555377225359,-0.009072913594948962,-0.0036608839844535735
8.47,-0.020802717071701005,-0.08838503632509469,0.040560651683019484,-0.004970260929495655,-0.0015372758969561112,-0.006856380836408449
8.48,-0.039879410391633764,-0.08646780732215194,0.023820887699465075,-0.008295146351375139,-0.015985872626079454,-0.007725046007054486
8.49,-0.038759207691252344,-0.08701184400811071,0.001180019963943125,0.0015716743275895801,-0.011024573003234719,-0.013869401135191622
8.5,-0.04741241354890506,-0.07258405217709225,-0.019429079665396018,0.0030119125888221987,-0.018042101391934975,0.0009455838934334515
8.51,-0.033265017966638326,-0.09761214601648462,-0.018784131676495102,-0.018800864347742023,0.006436739123019498,0.006341308725199484
8.52,-0.05023711757776006,-0.08873908039898232,0.03068933481697424,0.002709081758295041,0.011380001834021729,0.007282769325257059
8.53,-0.04014497001881867,-0.08806540086227867,0.49804307205930115,-0.01741507623082032,0.0033191511461330148,-0.01028380181268969
8.54,-0.0348179055990891,-0.09985073302759413,-0.02223902069779098,-0.005750701497136284,0.021471259087948953,-0.009033168742932137
8.55,-0.04651228611278045,-0.09027013464591381,-0.025577804478461863,-0.009177205366419257,0.004653268259861855,0.015292299859999739
8.56,-0.02838427159389139,-0.07425460223408739,-0.044477358481653524,0.0011863820529280761,-0.01147046458432097,-0.0159633881209313
8.57,-0.05770652653853808,-0.09945011503431904,0.06550400675572877,-0.00690621440900673,0.010942456798083259,0.004078569303388932
8.58,-0.04973056688606103,-0.09221361240777418,-0.10778242598833672,-0.008906406477603743,0.0010261873433397599,-0.013776448436709656
8.59,-0.03062072931939969,-0.08171228487089888,-0.013374465049840347,-0.019768050015470134,0.0005129719230841127,0.0046386166225996705
8.6,-0.022583785743524428,-0.08517322191470976,-0.016558029614729436,0.0017045348915132146,0.0183301307511139,-0.014597803160866646
8.61,-0.049035541137416185,-0.0820241133031595,-0.03719972287077611,0.002412237384457701,0.023192300206478757,0.012641962510723593
8.62,-0.03810938773594302,-0.08178391433386994,0.2521237542333246,0.004310594945613634,0.02764544068140873,0.00415897601575925
8.63,-0.043577553256926395,-0.06572735513344727,-0.3659658821794011,-0.005871332216494785,0.0049864960875215525,-0.003077418858662516
8.64,-0.03598872137948844,-0.08232626203792166,-0.012554037106542244,-0.0023603205784853438,0.009345394646455217,0.019672156557287872
8.65,-0.05906673129642376,-0.09021751817992182,-0.00767635561583863,-0.004274768583592381,0.001823842653338027,0.005613500060908109
8.66,-0.03249272830668189,-0.07939455696210924,-0.010537331729452098,0.012127307173453726,-0.001789607604146095,0.0016742876657493487
8.67,-0.04831208624146191,-0.09500958804246923,0.014276693112491476,-0.0012282555882551288,-0.010783114800769386,-0.015140004452898006
8.68,-0.05949420738536491,-0.08509355449664467,0.0415355385075986,-0.004513302194358856,0.0014002781249476933,0.007926234475300196
8.69,-0.04811329980531599,-0.07191959761816527,-0.006933383659498612,-0.007978369436519958,-0.010136031325516602,0.02116428450392637
8.7,-0.06600670251482069,-0.07738704837316934,-0.0046002286578964175,-0.02916827211446117,0.00541536796869116,0.008730241108355703
8.71,-0.04228754479484054,-0.06909070346926552,-0.19732277124981684,-0.02665046976676845,-0.008038850893744181,-0.000554105542721616
8.72,-0.053884395416593914,-0.08877721760036535,0.11021300172440027,-0.0003881670662377757,0.006774081004043965,0.006585533432756488
8.73,-0.029250453026113996,-0.08443464698466709,0.027005133217724187,-0.024939584535265874,-0.00016638018652489648,0.0028949840894906534
8.74,-0.04901039912721505,-0.08285079027225888,0.01374300316399387,-0.0060236212509683276,-0.01707343862765897,0.014797007402756402
8.75,-0.052125812152131204,-0.0808268719201641,-0.008920242377779034,-0.02846666309821026,0.0022308881087564018,0.00863723065235884
8.76,-0.04985219984517287,-0.075074689870778,0.09505431191580865,-0.019915178917213817,0.012825554111625578,0.00038679254386619205
8.77,-0.0492341230452686,-0.0756665749968972,0.02348675244980441,0.008231515546316107,-0.013598392291902324,0.013194513631625453
8.78,-0.058403622290113706,-0.0672058945546716,-0.15818825637887024,-0.00623890898124904,0.005429628958865712,-0.0031152224546316335
8.79,-0.04587509330974135,-0.0791125746645002,0.6096228285639094,0.010294514725827158,-0.007022258907017573,0.020167279019973647
8.8,-0.042064847443479415,-0.05684529075822315,-0.03803225451945841,-0.010302105223555694,0.0006761244960416797,0.01256093575322022
8.81,-0.05119464019632412,-0.09081455075016281,0.9214340118323795,-0.00429827160507718,0.004452528317808293,0.007223411094222115
8.82,-0.03965902281895823,-0.06469249498830724,-0.05169347067751943,0.009228462581781078,-0.00310930186613745,0.019287201393406547
8.83,-0.03137356808132393,-0.06575369830062125,-0.058125889496982455,0.004168836526421457,-0.006033169984480945,-0.0006987559621566726
8.84,-0.04308205279791615,-0.08019842622108588,-0.06622364859886651,0.004997360861587788,0.004052366336770426,0.0021006027985661768
8.85,-0.048071313383249534,-0.04802437352784557,-0.05943533759713917,0.0015816588488898886,0.007321640848077491,0.020441394544437195
8.86,-0.05622868487761436,-0.06700408112779584,-0.05824083060635914,0.004658143610647015,-0.0013370907208666398,0.01017144863253026
8.87,-0.03087553645406512,-0.07677815437575057,0.13575678977745584,0.00023298567596799166,-0.0006505438319007845,0.0067165144587310755
8.88,-0.05047380577394625,-0.07367139558351514,-0.021838276002394318,0.003749605173217458,-0.008460020414231042,-0.010932381668190114
8.89,-0.026656328746747632,-0.06636066555389919,-0.035145290227626864,0.0014332752732635432,-0.01367394641829651,0.021821213725738694
8.9,-0.03802307494024184,-0.05914104440619903,-0.1050801768241552,0.0017829337192308186,-0.007308581600052457,0.004871040081115121
8.91,-0.03698332580712043,-0.06725401887909685,0.2905115645013493,0.013843046045335518,0.003722959944651702,-0.007013470067086132
8.92,-0.03195681748272131,-0.0648716651740851,-0.028323838311418915,-0.0009135893321499606,0.012827336812214027,0.00805662260646297
8.93,-0.026761378397768824,-0.08932801570361543,0.05490045990195086,0.003975650078403591,0.007663180704709869,0.0096865805504456
8.94,-0.03636782293036493,-0.06622343748995986,-0.049231632159677,-0.000498962072253296,-0.01184968958868885,0.01249756221475955
8.95,-0.04252045653624149,-0.0758569809393026,-0.05011891170346535,-0.009174522467819163,-0.0117832546851805,0.005107667820671447
8.96,-0.05372311551261153,-0.0719099316136366,-0.06887931624911675,0.017177606786108388,-0.011964086593771005,0.02225858741033264
8.97,-0.05539673209208427,-0.06918680667517144,-0.018066145895349557,0.0005784141590553724,-0.01971633687774852,-0.008507608726056087
8.98,-0.034791545192878644,-0.06528962525627749,0.5436000501911117,0.0026683968177300898,0.005855228404633749,0.0035077022090507356
8.99,-0.05323107051756926,-0.06916071213779171,-0.039311833131401214,0.0003947969843907861,0.00545642850093393,0.02270066173987839
9.0,-0.038832905470041396,-0.06733293623206014,-0.07415317818413017,-0.0038944747714903076,0.0241895029910554,-0.0005440630691514094
9.01,-0.03658189914049092,-0.0700104696064839,-0.06765888113311674,0.011365668339862366,0.002115290901941432,-0.0032817585277351673
9.02,-0.04692177204728512,-0.054908232816561056,-0.03291526631631258,-0.01562920814437312,0.001150308062089177,0.02223633919953534
9.03,-0.047053557160801944,-0.09175587541240757,-0.034658814733425344,5.0003401330051076e-05,-0.010050300529286932,0.009899517286183275
9.04,-0.033018026994383276,-0.06584715519736759,-0.1291760841247592,0.022302336263194077,0.001524272140865865,-9.669281585013203e-05
9.05,-0.047454645509121755,-0.0700575381223201,-0.04175316729486582,-0.002343710794448132,-0.023489262099163445,0.012776810840165673
