timestamp, accel_x, accel_y, accel_z, gyro_x, gyro_y, gyro_z
0.01,-0.1,-0.1,99999.9,0.003661438532432725,0.003661438532432725,0.0015757535213963727
0.02,0.0,0.0,-100000.0,0.0027288897114379432,0.0027289765517060343,0.0010430440899009202
0.03,0.0,0.0,0.0,0.0028859438134902146,0.002886054474319643,0.0012213876034368894
0.04,-0.00035918994001349347,-0.0003591842898167444,-1.3153922395758855e-08,0.002779326552282135,0.0027795064422787997,0.0011577748235411553
0.05,-0.0006269081609389104,-0.0006268827550976216,-3.9328540424321545e-08,0.0027319342998739114,0.0027321569504541983,0.0011745320203829215
0.06,-0.0009100392617256148,-0.000909984698072192,-8.15880696336535e-08,-0.014431102279506069,0.0027570819226385326,0.0011623768779428073
0.07,-0.001191028999869559,-0.0011909320180801116,0.06891096472116942,-0.010743993659910273,0.002671216536409756,0.0011591806373593525
0.08,-0.0014592406927249613,-0.0014590917678105294,0.05734315065453188,-0.011414963382509767,0.0026092050442815457,0.0011520259999707565
0.09,-0.0017296886767326214,-3.5076436437961984e-05,0.04875605573495534,-0.011024477145984412,0.002539540190717001,0.001145246974126475
0.1,-0.001991654130506504,0.0010235007781212455,0.042327955487309055,-0.010866866865017259,0.0024700516021150024,0.001137503696051307
0.11,-0.002247509662822722,0.002147103479735197,0.037464977227230634,-0.0280299004392582,0.0026658481426866413,0.0011284105010326792
0.12,-0.002514069379344619,0.0032542353190323863,0.10287987374901775,-0.023596480275765257,0.002526784735296229,0.001119933639687131
0.13,-0.002754769710122673,0.004325154558984939,0.08839726945986115,-0.024083367076087936,0.0024661538737678285,0.0011107475523996619
0.14,-0.003014975433757172,0.007091880666212065,0.0774962751126651,-0.02335865159862999,0.002385986855180071,0.0011012549850008256
0.15,-0.0032617523260114467,0.009417102969882206,0.06919330361121467,-0.022889634259125952,0.0023098714785716634,0.0010914073086040316
0.16,-0.003502761494189599,0.011788721893591475,0.06277631618978319,-0.03976603303768126,0.0026743879192883935,0.001080018620762553
0.17,-0.003762313340871515,0.014186741742706547,0.12709926769716162,-0.03483614220784759,0.002485533022993841,0.001069981209514777
0.18,-0.003985181074028787,0.016435444694097186,0.11146002884210304,-0.035041613307814044,0.0024276453615745485,0.0010592512111889738
0.19,-0.00424469988047349,0.020356373006545657,0.09953113181637718,-0.03397616782430196,0.0023381829890296696,0.0010484815028409301
0.2,-0.004486163263095477,0.023786354583892576,0.09029883451638909,-0.03317495119618495,0.0022561103475706324,0.0010375095958927907
0.21,-0.00472233853798798,0.027235630821024297,0.0830267160623066,-0.04955293811918318,0.0027879346850410193,0.0010250117083416797
0.22,-0.004984858641421397,0.030794129781046786,0.14677165233401013,-0.044346480442486284,0.0025498183589546825,0.0010142426697674087
0.23,-0.005200179984399256,0.03404119183569537,0.13036717648517993,-0.044216670224773005,0.0024942815627138864,0.0010028115017030276
0.24,-0.005469193737894784,0.0389174394724137,0.11770715931724851,-0.0428265986908902,0.0023949466052621974,0.0009915075959659528
0.25,-0.005715542954476405,0.043276825259040655,0.1077746765254517,-0.04169687141145852,0.0023060275818297775,0.0009800989926952858
0.26,-0.0059570383825757744,0.04762409789367448,0.09982730951207941,-0.057594121877257286,0.0030024553545900615,0.0009673184643172757
0.27,-0.006232825278118526,0.05219964064999507,0.16313041101057024,-0.052120671008144555,0.0027143121219912227,0.0009563210502642235
0.28,-0.00645063302329163,0.056261955165506264,0.1460792990926052,-0.0516702765590466,0.0026596086215012766,0.0009447329105497586
0.29,-0.006738941173978219,0.06191358948862092,0.13278702547303567,-0.049971875233165854,0.0025488148262820783,0.0009333612769010082
0.3,-0.006999883375158333,0.06702495938575781,0.1222396044653351,-0.048532039268882624,0.0024512660625429085,0.0009219503150164599
0.31,-0.007256256999710331,0.07209521160948425,0.11369211039280458,-0.06397564808490976,0.0033089151695614135,0.0009094946946522297
0.32,-0.00755526667006734,0.07754318106413449,0.17661181356487532,-0.0582542297538267,0.0029692520987690636,0.000898551961345535
0.33,-0.007784757372064632,0.0822447892181939,0.15897685367249892,-0.057506052438132914,0.0029132596390005236,0.0008871560242440569
0.34,-0.008101260959847423,0.08849981580200168,0.1451103775185203,-0.05552281788302861,0.0027888880536918576,0.0008760010723716648
0.35,-0.008385548682099397,0.09419446789571788,0.1340031601060332,-0.053797570483559765,0.002680469227632081,0.0008648557227366082
0.36,-0.008665351636238938,0.0998221393600342,0.12490835377576559,-0.06882012015681983,0.0036956723941910857,0.0008531837014222296
0.37,-0.008996803195771008,0.10600246945635643,0.18748536160018148,-0.06287444869997035,0.00330263596073544,0.0008424356472503985
0.38,-0.009246018422004454,0.1111791966006831,0.16931687691013053,-0.06185533092265203,0.003242961633495466,0.0008314525192739204
0.39,-0.009598440549041243,0.11787777697122928,0.15492489695567713,-0.05961418584325314,0.0031026665980526586,0.0008206793323494445
0.4,-0.009913627323498986,0.12399947114317705,0.1433057755839684,-0.05763109183423339,0.002980959873867726,0.0008099583667938317
0.41,-0.010224192052987746,0.13003178493364315,0.13371078708246387,-0.07226753010279384,0.004150010365211234,0.0007994246436879227
0.42,-0.010596347479463475,0.13681225174955283,0.19598040164048314,-0.06612314873416134,0.003701620441429454,0.0007889196218113002
0.43,-0.010872025875130475,0.14231422967134372,0.17732505368073248,-0.06486137038847534,0.0036358115424426716,0.000778485006712515
0.44,-0.01126678867535702,0.14931087943797772,0.16245332264297474,-0.06239029135702919,0.0034772131919405475,0.0007681808057855669
0.45,-0.01161912805969223,0.15571774341007794,0.15036762585296515,-0.060177624170923046,0.003339798003574217,0.0007579715054571779
0.46,-0.011966488600023695,0.1620163397085584,0.1403173265313029,-0.07446326873599704,0.0046590990479477064,0.0007488553537822417
0.47,-0.012386549279597148,0.1692743649551239,0.20231217512822752,-0.068145782538967,0.004153394261549432,0.0007385843941814834
0.48,-0.012694090685272386,0.17496711010033908,0.1832147785219007,-0.0666694456930847,0.004079067462080882,0.0007287777850897751
0.49,-0.013136294647608793,0.18213157452483772,0.16790741307559642,-0.06399600163049715,0.003899868979327634,0.0007189793590169953
0.5,-0.013530733262712147,0.1886967996395747,0.15539886143223214,-0.06158142020120178,0.003744427533365127,0.0007093224039668031
0.51,-0.013919630568182129,0.19513826154989103,0.14493655410952044,-0.07555072669989055,0.005210578718327668,0.0007018458080717813
0.52,-0.014393710792148795,0.20276173128451758,0.20668728486050725,-0.06908474462114692,0.004645703089807694,0.0006917655635271318
0.53,-0.014737211913029569,0.20852628827583777,0.18719113398013576,-0.06742080790330984,0.00456061978822137,0.0006826291067225477
0.54,-0.015230679757394228,0.21574356578725612,0.1714908197048004,-0.06457129609130817,0.004358675127062814,0.0006733409788799461
0.55,-0.015670908624088042,0.2223553259075084,0.15860165603065468,-0.061981070741264126,0.00418305241181518,0.0006642468941437059
0.56,-0.016104849471787475,0.2288309973921994,0.14776914439629252,-0.07566690720974506,0.005792895123601038,0.000658586068976266
0.57,-0.016637998712099034,0.2367184407955393,0.20930463091595186,-0.06907544653069995,0.005167146222437316,0.0006486341719472864
0.58,-0.017020331455341875,0.24245093771097653,0.18945146906368393,-0.06724918492382921,0.005069252810276957,0.0006401850849319147
0.59,-0.01756769130167868,0.24962077029079197,0.17339939147653638,-0.06424815740640609,0.004842602190063256,0.000631391563200932
0.6,-0.018056232029550756,0.2561816574691511,0.16017029858872434,-0.06150675399559542,0.004644836469710068,0.0006228516032467735
0.61,-0.018537578370114716,0.2625970240961124,0.1490077904353626,-0.07494000733938024,0.0063954730853295295,0.0006191443610044239
0.62,-0.01913383332663443,0.27065738676453066,0.2103551841248219,-0.06824419773687139,0.0057073253254694535,0.0006092497033234065
0.63,-0.0195567479366332,0.2762682360939357,0.19018507199319856,-0.06627893805873536,0.005594770925019877,0.0006014884698718536
0.64,-0.020159536830988145,0.2833042816214458,0.17382076919147949,-0.06314898020798142,0.005341655687169449,0.0005931616547614195
0.65,-0.0206978464234453,0.2897304565270542,0.16029072529732957,-0.06027887505535385,0.0051199901720823,0.0005851550239084873
0.66,-0.02122792118086636,0.2960042714105285,0.14883668716159093,-0.07348827202066105,0.007008786792248031,0.0005835055740980148
0.67,-0.02189037481059586,0.30415644203210523,0.21002140927706137,-0.06670725062988042,0.0062568989749648115,0.0005735951774634032
0.68,-0.022354613733455153,0.30956934439486244,0.18957256740392836,-0.06462428257224209,0.006128039020595445,0.0005665109788267912
0.69,-0.02301339133481406,0.31639817525026814,0.17293376525451265,-0.06138595144336177,0.005846903568685599,0.0005586160977737323
0.7,-0.02360197470352432,0.32261836505254465,0.1591398874634109,-0.05840759182123074,0.005599786373289731,0.0005511147555447876
0.71,-0.024181173863269123,0.32868164207174033,0.1474308927384982,-0.07141965570409065,0.007624365571152058,0.0005515969526348142
0.72,-0.02491205240318095,0.3368538395793347,0.2084766029319951,-0.06457058081917029,0.006807578723288344,0.000541600538984361
0.73,-0.025417467490740364,0.34200469478114226,0.18778525917362288,-0.06238917677213639,0.006660969929575736,0.0005351748780578658
0.74,-0.026131931569750577,0.34856471861272054,0.17090771578409658,-0.05906103771713612,0.006350455858596806,0.0005276738477564442
0.75,-0.026770455150426642,0.35451915035570464,0.15688511541434025,-0.05599289121998939,0.006076532940333692,0.000520645720744149
0.76,-0.027398359740971046,0.3603141054576292,0.14495570650474576,-0.06883198181609627,0.00823476076942427,0.0005233054020347579
0.77,-0.02819910257301217,0.3684431981867617,0.20588426770551393,-0.0619301172534571,0.007352090258723941,0.0005131584025210844
0.78,-0.028744770119715213,0.3732789922475735,0.18498452575066437,-0.0596676166599673,0.007186480610920175,0.0005073675474192837
0.79,-0.02951386893101926,0.37951935767194245,0.16790189979687398,-0.05626633749412176,0.006845416368780278,0.000500221358589645
0.8,-0.0302012707820154,0.3851586845720137,0.15368356192979604,-0.05312499283373118,0.006543520513893558,0.0004936324989088763
0.81,-0.03087675530366596,0.39063767768000857,0.1415661380921307,-0.06581339492103092,0.008833490519166546,0.00049848931466016
0.82,-0.031748093682892886,0.3986684815970504,0.2023975893195029,-0.05887223352564665,0.007884115038635123,0.0004881348103974412
0.83,-0.03233242381384116,0.40314619377295746,0.18132132719728133,-0.05654416271868276,0.007698431159881818,0.00048295146678980876
0.84,-0.03315446310381276,0.40902572108754975,0.16406507736377307,-0.053084638791895816,0.007325819401260294,0.000476121783100967
0.85,-0.033889057320379834,0.414309978236313,0.14968177159069285,-0.049884933563727425,0.006994957231593065,0.00046993782816994665
0.86,-0.03461039145946643,0.4194344889246415,0.1374065079318143,-0.06244297123689997,0.009414973204367377,0.00047698681089836564
0.87,-0.03555242432895511,0.42731907517350176,0.19815905198505845,-0.05547437709975268,0.0083982222870988,0.00046637673574728017
0.88,-0.03617326328253512,0.4314046321811371,0.1769358541725552,-0.053094585825997104,0.008191555680343528,0.0004617712147973715
0.89,-0.03704600576526218,0.4368907936704719,0.15953517305433706,-0.04959007882070084,0.007786559682906856,0.00045522144408286793
0.9,-0.037825579042305435,0.44178840532059505,0.1450153976012558,-0.04634523853420017,0.007425897929812351,0.00044940861055245694
0.91,-0.03859052231547366,0.44652806220249475,0.13261019732979662,-0.05879140081854526,0.009974456480913189,0.0004586216309186183
0.92,-0.03960278764481018,0.4542250926881791,0.19330020673891113,-0.051805757221621146,0.00888979758731422,0.00044771745844021427
0.93,-0.04025751199066008,0.4578923859033246,0.17195733057029372,-0.049386559941234864,0.008661390681035998,0.00044365851377484237
0.94,-0.04117826847505057,0.4629603497879886,0.15443911287604806,-0.045848839572772755,0.008223320669943072,0.0004373545217085118
0.95,-0.04200016917366156,0.46744720068485346,0.13980907214161675,-0.04257061810277712,0.007832172479264694,0.00043188028622924825
0.96,-0.04280605732986942,0.47177887550070574,0.12729955124690662,-0.054921686717459055,0.010507946065648763,0.000443207479615129
0.97,-0.043887598550895746,0.4792529773629123,0.1879415934169515,-0.04792804180077566,0.009354971875707713,0.0004319805444919226
0.98,-0.044573200597142204,0.48248295104642847,0.16650396818640445,-0.04548035645391385,0.009104204427946495,0.0004284359905057853
0.99,-0.045538913298059924,0.48711469602148727,0.14889281150232136,-0.04191983848879617,0.008632504310006853,0.00042234656902104934
1.0,-0.046400131807899925,0.4911732727069795,0.1341764246021171,-0.0386186540129573,0.008210316025803004,0.0004171801359464918
1.01,-0.04724395520128155,0.495080244079793,0.12158592688216174,-0.0508898277830167,0.011012136780758738,0.0004305513439295013
1.02,-0.04839338256346082,0.5023014285892441,0.18219280778275504,-0.04389603323136169,0.009790553056310596,0.0004189829003959644
1.03,-0.0491065478058772,0.5050812420465817,0.16068306358363316,-0.0414295132125644,0.009516929227765798,0.00041592008430857197
1.04,-0.05011386502218329,0.509264744633503,0.1430012983494322,-0.0378553900249838,0.009011164012896502,0.0004100172490051128
1.05,-0.05101110627236949,0.5128833483118711,0.12822023577108155,-0.034540453092489126,0.008557502682949102,0.00040512987067578885
1.06,-0.05188958056123738,0.5163545361566713,0.11556987472793878,-0.04674546590664347,0.011484347217837067,0.0004204561168494556
1.07,-0.053105127229002846,0.5232976640173748,0.17615269952919732,-0.03975830612264992,0.010193961427184416,0.0004085372048903003
1.08,-0.0538423034868174,0.5256199272352102,0.15459122211680665,-0.037281463204314344,0.009897097678125806,0.00040592337902730204
1.09,-0.05488764653449607,0.5293484210933119,0.13685896714576984,-0.033701824924924455,0.009356941723022118,0.00040018254484953415
1.1,-0.055817395221424704,0.5325204508344061,0.12203271155364348,-0.03038125698378625,0.008871483439181685,0.0003955477375825714
1.11,-0.05672702421577469,0.5355497198407388,0.1093414354613742,-0.04253248775711143,0.011922458671652968,0.0004127227421491134
1.12,-0.05800659764076954,0.5421940125650837,0.16990968386920713,-0.035557798389913464,0.010563169459808414,0.00040045391103793503
1.13,-0.058764056802829145,0.5440560927329197,0.1483146914260658,-0.03307811562610184,0.010242783328076752,0.00039825653500985997
1.14,-0.05984367977163174,0.5473273971400017,0.130549930892343,-0.029500061114660872,0.009668009448176777,0.00039265660313767914
1.15,-0.06080225784188542,0.5500507004399524,0.11569585806725513,-0.026181002900356673,0.009150528554255357,0.0003882502873726824
1.16,-0.06173938988496275,0.5526362294500098,0.10298053427781895,-0.038289576997888264,0.012324858550551262,0.000407152016131876
1.17,-0.06308061848869784,0.5589648250138579,0.16354214796621136,-0.031332352583292165,0.010896646071338193,0.0003945429407275492
1.18,-0.0638545110831501,0.5603682200590321,0.14192978582627802,-0.028856387037045544,0.010552545829899347,0.00039272993236575386
1.19,-0.06496455359439324,0.5631841336148358,0.12414846350949915,-0.025286124646809804,0.009943015272476728,0.0003872533105808958
1.2,-0.06594817165250788,0.5654604202971758,0.1092819395331901,-0.02197483450301655,0.009393374424791828,0.0003830538941064138
1.21,-0.06690904907458162,0.5676041334926052,0.09655745410341865,-0.03405071669671385,0.0126903882062478,0.0004035461326145874
1.22,-0.0683093247744182,0.5736036836004321,0.15711893373904218,-0.027115207705959234,0.011193305293144664,0.00039061514834151233
1.23,-0.06909572842772604,0.5745534581673428,0.13550338292311892,-0.024648683334991216,0.010825380452172849,0.0003891550953463582
1.24,-0.07023226196167798,0.5769192131604983,0.11771950988226365,-0.02109162187800311,0.010181033693361681,0.00038378766718126414
1.25,-0.07123706442513367,0.57875352807088,0.10285400085408014,-0.017793564475978216,0.009599174732645686,0.00037977608420987477
1.26,-0.07221786770372773,0.580460583405884,0.09013336974561525,-0.02984564386941374,0.013018294978377263,0.00040171002551700333
1.27,-0.07367438421113093,0.5861208892499192,0.1506998790468117,-0.022935443775115985,0.011452459109473621,0.00038848360155289464
1.28,-0.07446934574772968,0.5866251682440371,0.1290934750919348,-0.020483335089791194,0.011060671710674812,0.00038734594144625644
1.29,-0.07562841496167039,0.5885489408716249,0.11131924719798292,-0.016944165657916455,0.010381520024064858,0.0003820769949023976
1.3,-0.07665051953154034,0.5899491906166676,0.09646643782446063,-0.013664091796953118,0.009767455604632434,0.00037823670980499104
1.31,-0.07764740544757842,0.591227520799209,0.08376092639039712,-0.02570025934557872,0.013308188176197291,0.00040145254335089824
1.32,-0.07915719365314544,0.5965412039962703,0.1443364008668624,-0.01881838247405823,0.011673774178512016,0.0003879647091889815
1.33,-0.07995676622130077,0.5966107187818648,0.12274975953907585,-0.016384989721049414,0.011258150822377458,0.0003871198824457528
1.34,-0.08113442419244166,0.598103190404542,0.10499568155353245,-0.012867759135502865,0.010544268560919922,0.000381942006137196
1.35,-0.08216995674104055,0.599079719410256,0.09016559958219261,-0.009609777405446048,0.009898074478589019,0.0003782589881182916
1.36,-0.08317909212962604,0.5999396207778673,0.07748484739167338,-0.021636996744029503,0.013559998693550731,0.0004025874774783789
1.37,-0.08473905154460226,0.6049018261791717,0.13807210553551386,-0.014785947746380356,0.011857232128766467,0.00038887921502273455
1.38,-0.08553932687505039,0.6045495086473562,0.11651425252168224,-0.012374964421009153,0.011417856674575084,0.00038829879459611436
1.39,-0.08673166632888751,0.6056234734114208,0.09878926585216163,-0.008883141119034077,0.010669374207269992,0.0003832077472748666
1.4,-0.08777679092020207,0.6061886847461007,0.08399040974715888,-0.005650782229617877,0.009991182368094927,0.00037967042066360635
1.41,-0.0887943819449788,0.6066424495701495,0.0713425578435789,-0.017675154532380267,0.013773941954539045,0.00040493445849345053
1.42,-0.09040130947823855,0.6112505767583154,0.1319434129776198,-0.010856990308416133,0.012003093129190935,0.00039105306972829945
1.43,-0.0911984457374615,0.610491196725016,0.1104219150249719,-0.008471563792024057,0.011540100010233542,0.00039070986919641785
1.44,-0.09240162576418243,0.6111612111317499,0.09273352671534951,-0.005008096944416717,0.01075719725788924,0.00038570442738083933
1.45,-0.0934525706952627,0.611329227790669,0.0779729938926721,-0.0018043715038529328,0.010047189233117515,0.00038230360119485265
1.46,-0.09447488814373628,0.6113908158117409,0.0653648125492623,-0.013831195074061277,0.013950483904324427,0.0004083197306896673
1.47,-0.09612550449844548,0.6156442762875192,0.12598018362730556,-0.00704757994801266,0.012111862450660685,0.000394318189428158
1.48,-0.09691574991421703,0.6144941179822561,0.1045012788747357,-0.004690366026401955,0.011625430551630138,0.0003941863514252066
1.49,-0.09812601913239405,0.6147761882857594,0.08685568966271262,-0.0012577386345585333,0.01080833107043023,0.0003892681390417808
1.5,-0.09917909927992241,0.6145625509471064,0.07213930365068677,0.001914810889352865,0.010066732187756059,0.00038599691883684466
1.51,-0.10020250044817658,0.6142472962419876,0.059576318323095734,-0.010119014343185522,0.014090309784018549,0.0004125768121417257
1.52,-0.10189347332101306,0.6181472935498644,0.12020633833209615,-0.003371269233914364,0.012184259761978776,0.0003985131072057052
1.53,-0.10267318703682804,0.6166238672886126,0.0987750641190388,-0.0010444811940842806,0.01167460681065777,0.00039856817349651145
1.54,-0.10388690288465341,0.6165351709366829,0.08117729387357997,0.002355242145923055,0.010823572377268208,0.00039374147690096134
1.55,-0.10493853906723416,0.6159565685137647,0.06650972836474978,0.0054944946120497815,0.010050646303560768,0.00039059516150668323
1.56,-0.10595948598535188,0.6152809181342311,0.053996342748163784,-0.006550185682838824,0.01419429545576974,0.0004175470466921761
1.57,-0.10768745202227592,0.6188302484166908,0.11464046333564681,0.000160668054868909,0.012221190931114892,0.0004034835229702098
1.58,-0.1084531209016859,0.6169520338994428,0.09326077993421222,0.0024552151198559326,0.011688568361705107,0.00040370248737734885
1.59,-0.1096667663702533,0.6165106715616542,0.07571478906065465,0.005820345166833235,0.010803894018672804,0.00039897405874229143
1.6,-0.11071350126456991,0.6155847012168092,0.06109968783363229,0.008924558493011136,0.009999937794326235,0.00039595002421183024
1.61,-0.11172857661279068,0.6145659823542093,0.04863930221254975,-0.0031341806419894376,0.014263481071016534,0.00042308005360926123
1.62,-0.1134901605226446,0.6177688531006087,0.10929639385537371,0.0035390208139184235,0.012223722129023574,0.00040908275669597043
1.63,-0.11423841375091115,0.6155550710973401,0.08797130306881229,0.005799869931589291,0.011668410379400104,0.000409444102028413
1.64,-0.11544861106216331,0.6147798461614284,0.07048010862042986,0.009129053912375775,0.010750419904236272,0.0004048229538050432
1.65,-0.11648712273881756,0.6135247997712812,0.055920200097148154,0.012196826821456369,0.009915759393894129,0.00040192052671771903
1.66,-0.1174930428859966,0.6121810125225835,0.0435153243749653,0.00012143042007199678,0.014299046899530321,0.00042903408055161297
1.67,-0.11928487499091034,0.6150428775053562,0.10418377118348587,0.006756444191765973,0.012193056057784838,0.00041517211003529674
1.68,-0.12001249583448725,0.6125132870404837,0.08291542873628543,0.008982460175611131,0.011615360267319104,0.00041565583015232103
1.69,-0.12121601770331836,0.6114235097609555,0.06548121460170364,0.012274646578599446,0.010664402032810915,0.00041115302309243236
1.7,-0.12224313067576986,0.6098581841162964,0.05097842026735577,0.015304883891927122,0.0097993877612428,0.00040837334520444973
1.71,-0.12323675658620914,0.6082078172309213,0.03863078073429449,0.003210795606492959,0.014302291158837318,0.0004352762655491689
1.72,-0.1250554886311761,0.6107352258877263,0.09930856937678811,0.009807280570862779,0.012130510146235864,0.00042162114144703053
1.73,-0.1257594238524007,0.6079099443057068,0.07809839061678758,0.01199761699484793,0.011530756224641297,0.00042220874959743597
1.74,-0.12695320258160336,0.6065252580950142,0.06072261093059694,0.015252023622766958,0.010547199421500033,0.0004178371766331487
1.75,-0.12796589683006232,0.6046687864175171,0.046278147047829066,0.018243904695768573,0.009652202766862465,0.0004151830627511766
1.76,-0.12894424248344194,0.6027306536737775,0.033988786505290136,0.006129614587703051,0.014274609702220793,0.000441682813859595
1.77,-0.13078656191822802,0.6049311133871083,0.09467358873749276,0.012687395965124658,0.012037496574435086,0.000428307860181564
1.78,-0.13146392930707407,0.6018304569849198,0.07352234714375072,0.014841465075337946,0.011416027615280313,0.00042898238476868686
1.79,-0.13264506378618535,0.600170684593726,0.05620582267162888,0.018057549992562327,0.010400258811237533,0.00042475655287482175
1.8,-0.1336404816854042,0.5980423872026241,0.04182029493371431,0.021010499942214933,0.009475668530840663,0.00042223234371745254
1.81,-0.1346007210045741,0.5958354823304424,0.029589665579976554,0.008874985774209787,0.01421747743919443,0.000448139095718573
1.82,-0.13646336373795975,0.5977173322729845,0.09027891438861957,0.015394030123072173,0.01191550400350332,0.000435118844656775
1.83,-0.13711145751216236,0.5943616754200409,0.06918683256529334,0.01751147536587516,0.011272677018678998,0.0004358648135865426
1.84,-0.1382772186531156,0.5924466830126152,0.05192983972612808,0.020688910425671225,0.010225097030627737,0.0004318006255866001
1.85,-0.13925267015935106,0.5900659352159332,0.03760333060931487,0.02360257384842496,0.009271316096695967,0.00042941203729049806
1.86,-0.1401921421617658,0.5876093034945518,0.025431379793161568,0.011445266042752334,0.014132431375075482,0.0004545396711262773
1.87,-0.14207190375259415,0.5891815988812166,0.08612233869165209,0.01792565886901896,0.011766080899719533,0.0004419492909105748
1.88,-0.14268819878537897,0.5855912497926274,0.06508917184788743,0.020006329760191354,0.01110226385330874,0.0004427527056782339
1.89,-0.1438360328620547,0.583440827121029,0.04789152434625521,0.023144976441240785,0.010023284911107563,0.00043886724379332446
1.9,-0.14478899927894417,0.5808269426277324,0.03362367309023284,0.026019193362587893,0.009040727635951254,0.0004366212156122354
1.91,-0.1457052117714852,0.5781395675141798,0.021509921710460844,0.013839941719354522,0.014021055166592274,0.0004607882478819109
1.92,-0.14759895751836893,0.5794119732538405,0.08219974743539638,0.020281867426976873,0.011590820351712758,0.0004487029969088978
1.93,-0.1481811114700804,0.5756070647677802,0.06122485928905519,0.022325796525420473,0.010906389473448663,0.00044955129756787406
1.94,-0.1493086425696788,0.5732408198760863,0.044085982375818844,0.02542568384496386,0.009796432655681551,0.00044586261034848475
1.95,-0.15023677903514,0.5704129481953757,0.029876057681121893,0.0282604676785901,0.008785522087255004,0.00044376715198123193
1.96,-0.15112741042599964,0.5675136515082002,0.01781967133851481,0.016059509710910216,0.013884965098746004,0.0004667975790863904
1.97,-0.1530320844622679,0.5684963443997049,0.07850546983156903,0.02246323365451234,0.011391346287576504,0.0004552922885173015
1.98,-0.15357793895276473,0.564496738306719,0.057587901194366964,0.024470615437550188,0.010686683647499796,0.0004561743106513417
1.99,-0.15468296993503827,0.5619340053419908,0.04050689860868317,0.027531919741008624,0.009546176570806966,0.0004527012047719725
2.0,-0.1555841061673391,0.5589110418247056,0.026353864246431158,0.030327437066805497,0.008507342140882813,0.00045076524464109975
2.01,-0.15644700692263314,0.555818396175134,0.014353717343595918,0.018105367837333564,0.013725797394683,0.00047248930627743786
2.02,-0.1583596396059761,0.5565219749048556,0.07503259333851986,0.024471220269120193,0.011169301005036252,0.0004616378929097701
2.03,-0.15886722017910415,0.5523471785240375,0.05417112341810082,0.02644239173482017,0.010444792332098213,0.00046254381769693706
2.04,-0.1599477324276677,0.5496069374000268,0.03714683751709913,0.029465418189315966,0.009274167076819358,0.000459305655935803
2.05,-0.1608198727254262,0.546407444717012,0.02304941088659973,0.03222197018601475,0.008207842485063142,0.0004575388916218593
2.06,-0.16165306526261247,0.5431396970301261,0.01110414393323822,0.01997971355163028,0.01354519677559794,0.0004777937542478481
2.07,-0.16357078003181869,0.5435750993143529,0.07177324419238573,0.026308075280521096,0.010926333932935501,0.0004676687650965043
2.08,-0.16403829487643407,0.5392441931639791,0.050966445188649345,0.028243498126336995,0.010182366661252908,0.0004685900635126506
2.09,-0.16509244709084214,0.5363449999662429,0.033997510140437726,0.03122866376871448,0.008982057917057104,0.00046560657008252326
2.1,-0.16593376944484817,0.5329871399339936,0.019954214423023586,0.033946669159121486,0.007888679235136411,0.0004640193220009786
2.11,-0.1667354468182225,0.5295621450107646,0.008062284786447549,0.02168545034848851,0.013344806191990603,0.0004826496834326937
2.12,-0.16865546591304792,0.5297405713633463,0.06871883540426893,0.027976739951551602,0.010664091546426594,0.0004733218731084155
2.13,-0.16908130401560584,0.5252721468718136,0.047965120444359854,0.029876984198513385,0.009901053073700901,0.0004742512452695738
2.14,-0.1701074298665617,0.5222320739850517,0.031050009283717372,0.032824802407832816,0.008671496489677858,0.0004715423195128436
2.15,-0.1709162840057843,0.5187335487999434,0.01705921917505293,0.0355047817931283,0.00755150047029927,0.0004701453888031722
2.16,-0.17168480830775934,0.5151687120052983,0.005218945773322048,0.023226101255948872,0.013126257651166304,0.00048700400554144326
2.17,-0.1736044573874551,0.5151015555981964,0.06586028375998865,0.029480763700874543,0.010384208361773676,0.00047854194718940343
2.18,-0.17398718533456758,0.510513661959866,0.045157948802554415,0.03134649264908873,0.009602484505086476,0.00047947325777843787
2.19,-0.17498379097702355,0.5073502470254176,0.028295014402601737,0.03425755892965821,0.00834411522951316,0.00047705879709116704
2.2,-0.1757586954553858,0.5037282490183426,0.01435499609847568,0.036900120404551214,0.007197937805945588,0.0004758633285713285
2.21,-0.1764925951519558,0.5000404772503853,0.0025645981960309427,0.024605728882206024,0.012891164068992489,0.0004908114678663065
2.22,-0.17840930723878046,0.4997392595063044,0.06318819778527995,0.030824225435295505,0.010088298939730296,0.000483281198124991
2.23,-0.1787476657355569,0.4950493587985161,0.042535457795978004,0.032656181850191444,0.00928827257458834,0.0004842094087898253
2.24,-0.17971342597178364,0.4917795616898868,0.025722968350905262,0.035531160824525884,0.008001523970229591,0.0004821091414962414
2.25,-0.18045306500624747,0.48805073085245176,0.011831914026316781,0.03813698677769389,0.006829598932507116,0.0004811264924221079
2.26,-0.1811510314198017,0.4842563910434361,8.954482488832127e-05,0.02582886155316319,0.012641112076698147,0.0004940343114238794
2.27,-0.1830623500609363,0.48373270253754264,0.06069303870148701,0.03201166086057942,0.00977795082919048,0.00048749900958516693
2.28,-0.1833552497743085,0.4789576323915856,0.04008805863264797,0.033810654300584796,0.008960000698287578,0.0004884201091343701
2.29,-0.18428900371958434,0.47559779947525804,0.02332422798012601,0.03665026782269616,0.0076453032197534646,0.0004866534378966247
2.3,-0.1849922232111112,0.47177818802590643,0.009480285285690115,0.03922010283734252,0.006448061054339968,0.00048589505315582867
2.31,-0.18565310682561176,0.4678930725110497,-0.0022159395118848124,0.026900425128309834,0.012377655716229403,0.0004966419077938175
2.32,-0.18755668843795092,0.46715851889089777,0.05836525650337876,0.03304799536955243,0.009454718385502681,0.0004911616090883307
2.33,-0.18780320484523827,0.462314461987523,0.037806177397570195,0.03481489057514954,0.008619218064261743,0.0004920725422470063
2.34,-0.1887039516290656,0.45888029702068067,0.02108919071375226,0.03761990688366655,0.007276998284565099,0.0004906583984652857
2.35,-0.1893697544730344,0.4549853403934545,0.007290487671340884,0.040154546661609655,0.0060548651648533675,0.000490135692728935
2.36,-0.1899925605286512,0.4510246385036609,-0.004361490448800964,0.027825680124890312,0.012102310960138606,0.0004986103792078014
2.37,-0.19188617585541579,0.450090791125346,0.056195403272951694,0.033938482146969526,0.009120117400329211,0.0004942417219064978
2.38,-0.19208554444816173,0.4451932509286216,0.035680363996704045,0.03567418841872102,0.008267434406889339,0.0004951403173316985
2.39,-0.1929524376365066,0.44169979195096687,0.019008399236852824,0.03844541225687962,0.006898114180964809,0.0004940970268675836
2.4,-0.19357997899760448,0.4377442856329239,0.0052530649341520075,0.04094569349665331,0.005651511096592813,0.0004938212741228663
2.41,-0.19416386269455188,0.4337225609907236,-0.006356557591402634,0.028610163814975085,0.011816550994751918,0.0004999222061263751
2.42,-0.1960453979776844,0.4326009119803853,0.054174225727621206,0.03468864516387698,0.008775620482639624,0.0004967182119378429
2.43,-0.19619700825757036,0.42766469411925634,0.03370138086822294,0.03639410666333592,0.00790611552052065,0.0004976031101288379
2.44,-0.19702935055931903,0.4241262958404324,0.017072626361525067,0.03913237029915647,0.006510111274113611,0.0004969482705710498
2.45,-0.1976179325779981,0.4201243775037167,0.0033588079606516885,0.041599161464487625,0.0052394532876542735,0.0004969305013622279
2.46,-0.19816219378299138,0.4160555504761909,-0.008210327111513038,0.02925963698843195,0.011521802207825432,0.0005005658262177493
2.47,-0.2000296511184274,0.41475747200592217,0.05229273932982892,0.03530422676146195,0.00842265313292585,0.0004985757132720226
2.48,-0.20013304080634953,0.4097966707938827,0.031860273503880876,0.036980413674153244,0.0075366794552280195,0.0004994462949483691
2.49,-0.20093027817580378,0.40622699192360834,0.015272942155419855,0.03968656875940267,0.006114401588182488,0.0004991966645340159
2.5,-0.20147934421288483,0.4021921283992036,0.001598818561987514,0.04212076167934502,0.004820097208388536,0.0004994475711503328
2.51,-0.20198342227217836,0.39808946325381456,-0.00993166113794075,0.029780035098269972,0.011219440824693736,0.0005005352283329158
2.52,-0.2038349193611566,0.3966261707866181,0.05054228572554109,0.03579113954693343,0.008062590455493297,0.0004998042558746403
2.53,-0.20388976810892245,0.3916541603898871,0.030148424849940625,0.03743904005104537,0.007160493340076085,0.0005006605713333749
2.54,-0.20465148370618635,0.38806615548336865,0.01360076536727206,0.04011395026205842,0.0057123457337021856,0.0005008319695410269
2.55,-0.20516061269404418,0.3840111341024688,-3.5442111467887116e-05,0.04251645250824075,0.004394796395094683,0.0005013618193068948
2.56,-0.20562408039381808,0.37988723044168893,-0.01152905223733569,0.030177423524432388,0.010910790139659843,0.0004998295447538879
2.57,-0.20745785008102757,0.3782697497256571,0.048914575678793426,0.036155422342860975,0.0076967544564062445,0.0005003988885205226
2.58,-0.2074639731119987,0.37329917955020164,0.02855759544395653,0.03777603533108571,0.006778870782111582,0.0005012415884248848
2.59,-0.20818988094362112,0.36970509491363046,0.012047900916911658,0.04042056973838375,0.005305250400942351,0.0005018488081666301
2.6,-0.20865878127551696,0.3656420188291598,-0.0015521185847688912,0.042792297728414745,0.003964850040141039,0.0005026673649127875
2.61,-0.20908133919306238,0.3615088068764649,-0.01301059096014967,0.030457956708719394,0.01059711829212084,0.0004984526446813959
2.62,-0.21089572811661128,0.3597479445094365,0.04740171910988522,0.03640319994741156,0.007326411877404161,0.0005003593018143422
2.63,-0.21085306961765582,0.35479073839495,0.027079951214759035,0.03799752845267567,0.006393069791993443,0.0005011895698093657
2.64,-0.2115430082838543,0.35120211167471993,0.010606565394866152,0.04061255556970236,0.004894366370892656,0.0005022463010691027
2.65,-0.21197151159668692,0.34714239875777153,-0.0029589378414129897,0.042954428348910945,0.003531501090708449,0.0005033627547932157
2.66,-0.21235298191868424,0.3430111381752532,-0.014383944835216766,0.030627840927866343,0.010279636539807409,0.0004964127316273255
2.67,-0.21414644937323146,0.34111745551790307,0.04599624415568826,0.036540646476802385,0.006952772518971424,0.0004996894538552603
2.68,-0.2140550756024595,0.33618481434682934,0.025708080446662507,0.038109691755548784,0.0060042911900548505,0.0005005089413515393
2.69,-0.2147090017601272,0.3326124774338801,0.009269402116984793,0.04069607421984607,0.004480886998251957,0.0005020277060443222
2.7,-0.21509705675271107,0.32856686241977684,-0.004263196160536609,0.04300900787633634,0.003095934811160393,0.0005034506107055586
2.71,-0.21543737716456235,0.3244481442576941,-0.01565634698330598,0.03069330048442629,0.009959497984310159,0.0004937219470871185
2.72,-0.21720849286310795,0.3224319345207505,0.044691106770855527,0.03657395207353473,0.006576988008470512,0.000498397200829021
2.73,-0.21706858579051413,0.317534341944814,0.02443500173754387,0.038118708302838644,0.005613677449312127,0.000499207964244708
2.74,-0.2176865675096451,0.3139884268188453,0.008029487359451082,0.04067729814571436,0.004065947123563901,0.0005012000620082208
2.75,-0.21803423358335294,0.3099669663630955,-0.005471754471741974,0.04296220081623354,0.0026592777667748925,0.0005029372813426746
2.76,-0.21833345108746016,0.3058707178738018,-0.016834593150605315,0.030660547106409995,0.00963779670688689,0.0004903959825893193
2.77,-0.22008089306524425,0.30374198622284965,0.043479692370951284,0.0365092927749714,0.006200150972085485,0.0004964939345504082
2.78,-0.2198927434093889,0.29888921708076666,0.02325416422088722,0.03803074232217819,0.00522231193472786,0.000497298375253211
2.79,-0.22047495370713932,0.2953791643678372,0.006880329257441531,0.04056237678540863,0.0036506223744010085,0.0004997738398259166
2.8,-0.22078239449996317,0.29139124468891,-0.006591040904169176,0.04282014421186308,0.0022225971893135577,0.0005018325010183912
2.81,-0.22104065930506067,0.28732673667208886,-0.017925045447952925,0.030535752357016475,0.009315567275299252,0.0004864537019552292
2.82,-0.222763211468191,0.28509518313901694,0.04235581089417906,0.036352803346949444,0.005823294571997221,0.0004939942287296465
2.83,-0.22252721191051705,0.2802963143855308,0.022159441401825575,0.03785191257274418,0.0048312185007370004,0.000494795035875735
2.84,-0.2230739221431577,0.2768308842204803,0.00581586053982619,0.040357410433189606,0.00323592881817383,0.000497762601667663
2.85,-0.22334139934798714,0.27288523108737195,-0.007627059028791905,0.042588922031803936,0.0017869006875621707,0.000500149056669616
2.86,-0.22355895840320272,0.2688610875334341,-0.0189336418010555,0.030325022865414164,0.008993784585125043,0.0004819167753513112
2.87,-0.2252555078641194,0.26653609258353583,0.04131368649851197,0.03611055289652927,0.005447392372879492,0.0004909154955011378
2.88,-0.2249721463343235,0.2617995163456399,0.021145120001619944,0.03758826845444135,0.004441361411653442,0.0004917155919259079
2.89,-0.2254837198378823,0.25838680137058034,0.004830426396651433,0.04006842681963368,0.002822822931736538,0.0004951826703460999
2.9,-0.22571158673656555,0.2544914921398522,-0.008585400976812707,0.04227454222680101,0.001353136268536074,0.0004979024645899156
2.91,-0.22588877776286154,0.2505157018628523,-0.019865909850480534,0.030034378198612773,0.008673364001575883,0.00047680932648134936
2.92,-0.22755831157184048,0.2481063144577078,0.04034794301333022,0.03578852308688257,0.005073358504345678,0.0004872776535303543
2.93,-0.22722816492404263,0.24343975302709708,0.02020588465434514,0.03724576868421119,0.004053645552101823,0.00048808014480745347
2.94,-0.22770505033520294,0.2400871931995674,0.00391876848304662,0.039701360224045995,0.0024122018554329208,0.000492052809877231
2.95,-0.2278937456523522,0.23624967067759073,-0.009471264066363005,0.04188291628485043,0.0009221926374996733,0.0004951106581025
2.96,-0.2280309909608036,0.23232960074670572,-0.02072698423560837,0.029669731203130982,0.008355161770360022,0.00047115759404458727
2.97,-0.2296725932282584,0.2298445287340911,0.039453586122562,0.035392588785814375,0.004702048088436179,0.0004831028088068889
2.98,-0.22929632031321034,0.2252550512205076,0.019336799503832935,0.03683026237284147,0.0036689168970417685,0.000483910935556325
2.99,-0.2297390455296977,0.2219694502292313,0.003076006054314462,0.03926203295448568,0.0020049039016520514,0.0004883939183090086
3.0,-0.2298890872154402,0.21819653811538942,-0.01028947023584692,0.04141984112173649,0.0004948997473300169,0.0004917936871874358
3.01,-0.22998688759656716,0.21433894884292926,-0.021521626569764862,0.029236870653442625,0.008039975668450319,0.0004649896083798622
3.02,-0.23159973615349827,0.21178655152720438,0.03862598315862442,0.03492850098754833,0.004334257903503141,0.00047841494903678387
3.03,-0.23117807163686166,0.20728059193730886,0.018533287686750555,0.036347472343720676,0.003287963213211278,0.00047923204253072277
3.04,-0.23158723738703202,0.20406813502793497,0.0022976149871567486,0.03875613903872298,0.0016017092901461126,0.0004842287336756516
3.05,-0.23169921657739678,0.2003660547300612,-0.011044487386868695,0.04089098315211055,7.202956991897002e-05,0.0004879734308970092
3.06,-0.23175814561682273,0.19657711601617223,-0.022254247102893032,0.028741446052186745,0.007728545867920417,0.00045833488402497634
3.07,-0.23334150831999523,0.19396539873817176,0.037860841262116196,0.034401871855258656,0.003970727258097223,0.00047323965236720504
3.08,-0.2328752563940384,0.18954877531118797,0.01779110922583982,0.03580298054274423,0.002911514965999568,0.0004740690934525226
3.09,-0.233251530232792,0.18641504826444333,0.0015794054153417392,0.038189229977144246,0.001203341084553144,0.00047958155376437764
3.1,-0.2333261055298408,0.1827894369066385,-0.01174045192620099,0.040301864393830725,-0.00034570293554188987,0.0004836733232263385
3.11,-0.23334680331998925,0.17907474574085924,-0.022928927592147375,0.02818895443482001,0.007421555988014986,0.00045122412874349917
3.12,-0.2349000349255448,0.1764113563540448,0.03715418466221365,0.03381816173939418,0.0036121390504574055,0.000467603811009041
3.13,-0.23439006312742094,0.17208929191436795,0.017106338079386774,0.03520221539607938,0.002540246407748608,0.00046844899233947995
3.14,-0.2347341736097519,0.16903930103673304,0.000917498708119524,0.037566702416035824,0.0008104663064921452,0.00047447797022204697
3.15,-0.23477206500643888,0.1654952304663837,-0.012381192062704827,0.039657850465615256,-0.0007576386806624291,0.00047891809295145507
3.16,-0.2347552329950986,0.1618598294061968,-0.02354944456328667,0.02758472903883064,0.007119634312665655,0.0004436889694090037
3.17,-0.23627777110846182,0.1591520564869775,0.036502331379750785,0.03318266803414292,0.003259120991125758,0.0004615353701698654
3.18,-0.23572500449375866,0.15492919965831575,0.016475338933119588,0.03455044097972816,0.0021747768253563035,0.0004623996617167978
3.19,-0.23603773531277739,0.1519673925942655,0.0003083041200113712,0.036893787606824616,0.00042369720544556747,0.00046894461738325357
3.2,-0.23603971868624285,0.1485093892128475,-0.012970251068722405,0.0389641403451523,-0.001163173153777203,0.00047373351780532
3.21,-0.23598611392117164,0.14495778570822182,-0.02411929274970248,0.02693392970478856,0.006823355152371343,0.00043576169498809263
3.22,-0.23747747565749933,0.1422125583316891,0.035901870170107486,0.032500515741422,0.002912246967973652,0.00045506308256866666
3.23,-0.23688289086720715,0.13809300547062975,0.01589474405427893,0.03385274787178742,0.0018156719268038455,0.00045594980035864094
3.24,-0.23716507534743414,0.13522329266324462,-0.0002515042396566969,0.036175542523750534,4.3592664382268234e-05,0.0004630089360681016
3.25,-0.23713197712993406,0.13185535793880376,-0.01351091034607066,0.03822575776162467,-0.0015617549934335176,0.0004681461932324623
3.26,-0.237042406858734,0.12839154430066557,-0.024641708122885575,0.026241534883406012,0.006533240331149661,0.0004274750167284205
3.27,-0.23850218497045717,0.1256154333217907,0.03534963777696021,0.031776649618540265,0.00257203853457412,0.00044821627867587765
3.28,-0.23786680486637124,0.12160275095096651,0.015361430749649685,0.033114045565008486,0.001463445347834421,0.0004491286566847098
3.29,-0.23811932059913943,0.11882852764433238,-0.0007650099220768425,0.03541684251905978,-0.0003293402773922422,0.00045669895247603957
3.3,-0.23805201223581207,0.11555415914354938,-0.014006211914718847,0.03744754410315386,-0.001952884447690429,0.0004621833158446126
3.31,-0.23792732893213042,0.11218163304294038,-0.025119690141295337,0.025512335129401646,0.006249760780684612,0.00041886184553547906
3.32,-0.23935518804307776,0.10938085369671668,0.03484269704756571,0.031015827792180286,0.00223896650431293,0.0004410246527060356
3.33,-0.23868007623661924,0.10547810137317981,0.014872499534135386,0.03233905632367519,0.001118560261443425,0.00044196581782311224
3.34,-0.23890383982205776,0.10280226996339792,-0.0012350758282764218,0.03462237540115677,-0.0006946448012239803,0.00045004307219240024
3.35,-0.23880323301028739,0.09962448279221547,-0.014458979826770246,0.03663415272595157,-0.002336111736013933,0.0004558724815931679
3.36,-0.23864432915132738,0.09634626817245362,-0.025556023244277526,0.02475092796928014,0.005973338225307794,0.00040995508641208304
3.37,-0.24004000216848453,0.0935266838864024,0.034378316007277476,0.030222616727553882,0.001913452634073112,0.0004335180642860061
3.38,-0.23932625786926565,0.08973643731646774,0.014425253480609967,0.031532310374971464,0.0007814310742693055,0.00043449101424884306
3.39,-0.23952222001355494,0.08716142998022036,-0.00166436472603948,0.03379663682722306,-0.0010519126016290666,0.0004430698892252682
3.4,-0.23938926158706408,0.08408277849092372,-0.014871840621211163,0.03579004455796355,-0.0027110353292696004,0.0004492414985781902
3.41,-0.23919706496400295,0.08090144673289501,-0.025953296978187268,0.023961714036226663,0.005704346942708834,0.000400787449736158
3.42,-0.24056034934716308,0.07806857405867618,0.03395394813310304,0.02940138744753749,0.0015958713825453379,0.0004257263556281547
3.43,-0.2398091024247151,0.07439294836597554,0.014017178608938252,0.030698142330882094,0.0004524251951516724,0.00042673393981551496
3.44,-0.23997824310839633,0.07192074981343666,-0.002055358576669164,0.032943926907613365,-0.0014007821088705811,0.0004358080099020617
3.45,-0.2398139103831909,0.06894334948714942,-0.015247242464155875,0.03491948489552208,-0.0030773001621019324,0.00044231821432777724
3.46,-0.23958937948265202,0.06586104077221933,-0.026313925003407235,0.023148894371065605,0.005443115586425604,0.0003913912790654614
3.47,-0.24092013358512077,0.06302005527203391,0.03356721399505602,0.028556312902247433,0.0012865517293879254,0.0004176791839549926
3.48,-0.24013253987931193,0.05946072832774263,0.013645925802663328,0.02984068874226214,0.00013186486228699808,0.00041872408691736234
3.49,-0.2402758637387592,0.057092898582133955,-0.0024103764939553685,0.03206834792485797,-0.001740936654972871,0.00042828589137669325
3.5,-0.24008116010776348,0.05421844797570685,-0.015587472859124318,0.03402654129698269,-0.003434595790910603,0.0004351303573057085
3.51,-0.23982527974197865,0.051236892684158875,-0.026640162573698944,0.022316468793752296,0.005189929057352764,0.00038179839508164744
3.52,-0.24112341904469758,0.04839263570310948,0.03321588422977584,0.027691366394917247,0.000985779042568591,0.0004094058688486514
3.53,-0.24030065581825966,0.04495087140288234,0.013309294040197983,0.028963886692045363,-0.0001799709835075406,0.0004104905964469621
3.54,-0.24041918798900497,0.04268856854672265,-0.0027315913087022636,0.031173803075365793,-0.002072102595501724,0.00042053169442940355
3.55,-0.24019513851669672,0.039918371168568,-0.01589467498064323,0.03311508248251337,-0.003782654509585627,0.0004277053923384634
3.56,-0.23990891541814108,0.037038911293585386,-0.026934122692168216,0.021468235255078155,0.004945030412388612,0.00037203995521926134
3.57,-0.2411744092967183,0.03419589753583807,0.032897864068459626,0.026810320975050088,0.000693796982143626,0.0004009352541350038
3.58,-0.24031767097199008,0.030872568896889163,0.013005215118155888,0.02807147333961361,-0.0004828447909981867,0.0004020621221524201
3.59,-0.2404124526478313,0.028716571658371493,-0.0030210445878253722,0.03026399614690516,-0.0023940473985413872,0.00041257315018131444
3.6,-0.24016010016225664,0.026051557764361633,-0.01617086251570754,0.03218877815413124,-0.0041212494342674644,0.0004200703895943556
3.61,-0.23984455911119085,0.023275168179459627,-0.027197790721800175,0.020607790083269985,0.0047086227993744945,0.0003621463284690014
3.62,-0.24107742710555158,0.02043759395498057,0.032611179312524996,0.025916749714719307,0.0004108094296769076,0.00039229558385727516
3.63,-0.24018792110780396,0.017233206008882007,0.012731739804650033,0.027166986333186476,-0.0007765584668520007,0.0003934667089443978
3.64,-0.24026000595256392,0.0151839361128836,-0.003280660232363175,0.029342432049714855,-0.0027065777113617576,0.0004044374402942605
3.65,-0.23998040692418954,0.012624684315731827,-0.016417933048629152,0.03125109965479757,-0.00445019256749934,0.00041225190669773044
3.66,-0.23963658691172895,0.009951993873436038,-0.027433037521618076,0.01973852904485613,0.004480871408268423,0.00035214698479576025
3.67,-0.24083689542209186,0.00712374591760323,0.032353963677067554,0.02501402678849675,0.00013698243334812985,0.0003835143918475029
3.68,-0.23991583852023268,0.004038458332189521,0.012487025538021612,0.026253765011637804,-0.0010609514298755569,0.0003847316846581239
3.69,-0.2399662886531928,0.002096002544860198,-0.0035122566632850294,0.028412418123587913,-0.0030095374144815754,0.0003961510901825546
3.7,-0.2396605096421922,-0.0003572388562744777,-0.016637680033682045,0.030305321389811523,-0.004769332851335478,0.000404275883518608
3.71,-0.2392894603886475,-0.0029259264744396773,-0.027641631250574505,0.018863649143676435,0.004261905429314574,0.000342070398572671
3.72,-0.2404573192293924,-0.005741261652758567,0.03212444768863065,0.02410532928189514,-0.0001275538404533665,0.00037461840436523505
3.73,-0.23950593369903572,-0.008707612360048245,0.012269325466718328,0.02533495232150954,-0.001335898660261886,0.00037588356473811573
3.74,-0.23953581639091226,-0.010543480484237477,-0.003717557603977184,0.0274770661475705,-0.003302805672077487,0.0003877398747270386
3.75,-0.23920493077866922,-0.012890772547180518,-0.01683180332889833,0.02935452293800241,-0.005078554218246026,0.00039616754914288996
3.76,-0.23880770889661562,-0.015355458269361577,-0.027825247697066402,0.017986151086174518,0.004051820009702663,0.00033194396539985106
3.77,-0.23994326831200397,-0.01815458463561015,0.03192094888859742,0.023193639657404726,-0.00038270315748331705,0.00036563345524123433
3.78,-0.23896277863144633,-0.02100246327962907,0.012076978759267831,0.024413497379126355,-0.0016013087521408202,0.00036694796928260465
3.79,-0.23897316303589378,-0.022732262130453762,-0.003898201441643323,0.026539294983010463,-0.0035862949869492943,0.0003792287359520774
3.8,-0.23861824729465297,-0.02497395461098506,-0.01700191849529631,0.028401591784249575,-0.005377773647918741,0.000387951340499462
3.81,-0.23819591358886782,-0.027334923839994474,-0.027985479382763856,0.01710884234516972,0.0038506782009193356,0.00032179393165172274
3.82,-0.23929936094901905,-0.030114825690930047,0.03174186325338724,0.02228174881117838,-0.000628401275718303,0.00035658441293877916
3.83,-0.23829099060179715,-0.03284497707589651,0.0119084023531002,0.023492158611651194,-0.0018571219771116828,0.00035794955186088613
3.84,-0.23828294438033026,-0.034469496181799286,-0.004055749496245653,0.025601833784568314,-0.003859949267607002,0.00037064171210282165
3.85,-0.2379050755862977,-0.03660620734979858,-0.01714956477272267,0.02744922660870891,-0.005666939237399151,0.00037965083209811533
3.86,-0.23745869160762823,-0.03886401020114505,-0.02812384338746199,0.01623434075816333,0.0036585128896215015,0.0003116453360781238
3.87,-0.2385302485308216,-0.041621941782032934,0.03158565790251089,0.021372259657219894,-0.0008646140222634147,0.0003474951189264104
3.88,-0.23749521691485143,-0.044235369882628106,0.01176208375142096,0.022573507414675464,-0.00210330836574994,0.00034891193949865534
3.89,-0.2374698037144185,-0.04575564956255107,-0.004191693001587282,0.024667225717517467,-0.004123741914377447,0.0003620018775425512
3.9,-0.2370700561726835,-0.047788246506641485,-0.01727621197211704,0.02649994107178557,-0.005946028291401907,0.00037128867631485227
3.91,-0.23660068173114723,-0.04994367851729464,-0.028241788125882294,0.01536507859994264,0.003475328705500982,0.00030152196277218274
3.92,-0.23764060099296103,-0.052677153408176025,0.03145086492573057,0.020467591179560946,-0.0010913353936006318,0.0003383883367424813
3.93,-0.23658012075600254,-0.05517510110131241,0.011636574921425336,0.021659932267533336,-0.002339865813501654,0.00033985768321407727
3.94,-0.23653839733128734,-0.05659241272049087,-0.004307459011698711,0.02373783212321882,-0.004377673930866639,0.0003533312928776981
3.95,-0.23611784023103155,-0.05852199214562148,-0.017383266319725976,0.02555606803741979,-0.006215045438994241,0.000362886553649709
3.96,-0.23562653048259108,-0.06057607547127475,-0.028340698960960253,0.014503307072747763,0.0033011039002016802,0.0002914463048106971
3.97,-0.23663509338689437,-0.06328285581780335,0.031336076107280064,0.019569982896375203,-0.0013085856850706115,0.00032928571112392593
3.98,-0.23555036776201632,-0.06566678522279545,0.011530487284971969,0.02075364325095511,-0.0025668182167636836,0.0003308082184799205
3.99,-0.23549338152406563,-0.06698261196369515,-0.004404415498981962,0.022815837078033443,-0.0046217720664789245,0.0003446509647106909
4.0,-0.23505307630955485,-0.06881048156159864,-0.01747207525326644,0.024619764180596703,-0.006474020782295007,0.0003544651323748579
4.01,-0.23454087941132684,-0.07076444673348448,-0.028421903017772365,0.013651101160658116,0.0031357921918660023,0.00028143953787113346
4.02,-0.23551839316127143,-0.07344253236230003,0.03123993869813546,0.018681499683301222,-0.001516409654979639,0.0003202077365681007
4.03,-0.23441061351547887,-0.07571410578055549,0.011442487473090068,0.01985667691496554,-0.002784213644445797,0.0003217838349842153
4.04,-0.23433940029349287,-0.07693012411102984,-0.004483875324368114,0.02190325229420649,-0.004856086995208787,0.00033598081441815633
4.05,-0.23388039835481322,-0.07865778445470539,-0.017543931525310086,0.0236930149282284,-0.00672300808229658,0.00034604403698795707
4.06,-0.23334835333344017,-0.08051305266931763,-0.028486673029348708,0.012810364798087514,0.002979324570512613,0.0002715215031317796
4.07,-0.23429514811823537,-0.08316067018565576,0.031161151881065052,0.017804036906443072,-0.0017148747281173354,0.0003111737346974469
4.08,-0.23316549203400427,-0.08532173169317758,0.011371293924256065,0.018970901448099126,-0.0029921225497109884,0.00031280365506343227
4.09,-0.23308107380159981,-0.08643979338085472,-0.004547099621277084,0.021001922314379088,-0.005080691535330849,0.0003273396553527205
4.1,-0.23260441444961089,-0.08806892048962567,-0.017600076356316663,0.02277763968564915,-0.006962082986358113,0.0003376418248869021
4.11,-0.23205354882094298,-0.08982708647131687,-0.028536230587405953,0.011982836305381115,0.002831611059820629,0.0002617106987683218
4.12,-0.23296997586186308,-0.0924426783610599,0.031098464070566934,0.016939325818569044,-0.0019040692430288692,0.00030220183980136955
4.13,-0.2318196047923493,-0.09449523606708254,0.011315674246503704,0.018098022102035625,-0.0031906360261625025,0.00030388562018714973
4.14,-0.23172298778462164,-0.09551735087764968,-0.004595300495680021,0.020113529954394443,-0.005295678914160439,0.0003187451778716721
4.15,-0.23122969636801827,-0.09704977933733261,-0.017641702081405697,0.02187529730395366,-0.007191341301454431,0.00032927597068650185
4.16,-0.23066102436075653,-0.0987125948759271,-0.02857174858483802,0.01117009404749953,0.0026925424315552456,0.0002520242793703819
4.17,-0.23154745328213266,-0.1012948085676868,0.031050670710186523,0.016088939174988947,-0.002084100746832673,0.0002933089919376444
4.18,-0.23037751077481516,-0.10324101757497317,0.011274442996977996,0.01723958682868067,-0.0033798641121672,0.00029504648488170026
4.19,-0.23026968399619818,-0.10416933664991745,-0.004629642962328262,0.019239601951957414,-0.00550116108151557,0.00031021394160341925
4.2,-0.22976076976988224,-0.10560704341244787,-0.017669954157639722,0.020987491746268863,-0.0074108973167412604,0.0003209628576053716
4.21,-0.22917529072685738,-0.10717640139823459,-0.02859435325852644,0.010373562274645549,0.002561991869195487,0.00024247806261506457
4.22,-0.2300321073889222,-0.10972407856080224,0.03101661265603184,0.015254297028424062,-0.0022550943409396437,0.00028451093698694693
4.23,-0.2288437175579361,-0.11156622454766563,0.011246460225322608,0.01639699208953884,-0.0035599341466084683,0.00028630181749155376
4.24,-0.22872565075715556,-0.11240302444370798,-0.004651246676701248,0.01838151478150468,-0.005697267075099345,0.0003017613743736303
4.25,-0.22820210578089473,-0.11374811324404988,-0.017685932691691164,0.020115577913831836,-0.007620882178556786,0.00031271777536165705
4.26,-0.22760080220507461,-0.115226032457727,-0.0286051256281894,0.009594517106479126,0.002439816577865449,0.00023308654255091297
4.27,-0.2284284066789155,-0.1177381982486736,0.0309951749954962,0.014436672664931732,-0.0024171910805658005,0.00027582223306770647
4.28,-0.22722267257080375,-0.11947868186812372,0.011230630203584724,0.015571488799947776,-0.003730989178875297,0.0002776660071914823
4.29,-0.2270953151750632,-0.12022634924946374,-0.00466118697417528,0.017540500598340468,-0.005884141440517703,0.0002934017772260378
4.3,-0.22655811250160696,-0.12148103571973934,-0.017690693603356067,0.01926076759541955,-0.007821442320523021,0.00030455492402912206
4.31,-0.22594194888370112,-0.12286964617302942,-0.028605102677659033,0.008834092624202395,0.0023258593380605444,0.00022386290886431163
4.32,-0.22674075342621336,-0.12534549874931855,0.03098528623013408,0.013637198645572089,-0.0025705464304946043,0.0002672562627345177
4.33,-0.22551875574094993,-0.12698682060996447,0.011225900644618036,0.014764188373340068,-0.003893186435471624,0.00026915227667836337
4.34,-0.2253830353637909,-0.12764783770879973,-0.004660495740438364,0.01671765327767175,-0.006061942708277179,0.00028514833498837004
4.35,-0.22483312790200216,-0.12881443510082136,-0.017685249433796457,0.01842413550623236,-0.008012737950998758,0.0002964874233199206
4.36,-0.22420304937043056,-0.1301159640609839,-0.02859527810983309,0.008093287037412453,0.0022199500011235163,0.000214819071521204
4.37,-0.2249734764347977,-0.13255486424945673,0.030985917707226918,0.012856872921072154,-0.002715328779117318,0.00025882525040144124
4.38,-0.22373627249550054,-0.1340996106824477,0.011231262124766772,0.013976068833261222,-0.004046695845197115,0.0002607726999899775
4.39,-0.22359309383546133,-0.1346765413723361,-0.004650161979924405,0.01591393451671226,-0.006230841929620341,0.00027701313185120226
4.4,-0.22303141307133956,-0.13575744697735814,-0.017670569905092748,0.01760662538485606,-0.008194941599679482,0.0002885273267771651
4.41,-0.22238834425536425,-0.13697420564007246,-0.028576602932872675,0.0073729688950636765,0.0021219069247377705,0.00020596569019966794
4.42,-0.22313082506997262,-0.13937566676780477,0.030996083273393538,0.012096564989175038,-0.002851718012415909,0.00025054028445117485
4.43,-0.22187944736629106,-0.1408264962865502,0.011245747773003245,0.013207980963271231,-0.004191698624511735,0.0002525382249178899
4.44,-0.22172969135425546,-0.14132197288407866,-0.004631132171084573,0.015130179970413014,-0.006391021272757958,0.0002690071714462442
4.45,-0.2211571464627582,-0.14231965512756517,-0.017647582319924027,0.016809056119289047,-0.008368236724830131,0.00028068564037880557
4.46,-0.22050199042666918,-0.14345402592930157,-0.028549985886527907,0.006673883312297764,0.002031538347172306,0.00019731220795259335
4.47,-0.22121696300558824,-0.1458177039159736,0.03101483915912695,0.01135702206674902,-0.002979904149155466,0.0002424113435123537
4.48,-0.21995241876737737,-0.14717733436864222,0.011268433031119685,0.012460654467232749,-0.004328385924254066,0.00024445869950239847
4.49,-0.2197969415362877,-0.14759404512343366,-0.004604310523959043,0.014367105393724018,-0.006542672680606565,0.0002611404009309646
4.5,-0.21921441849315215,-0.14851103127710985,-0.017617171792494446,0.016032127875353862,-0.008532816382196684,0.00027297234507345035
4.51,-0.218548055848089,-0.14956545585143033,-0.028516293646418944,0.005996658187182738,0.0019486436993312005,0.00018886688856508478
4.52,-0.21923596367656728,-0.1518911395770317,0.03104128384556759,0.01063887525099326,-0.0031000860381659567,0.00023444732640900433
4.53,-0.21795923373701953,-0.15316233597850726,0.011298435573792176,0.01173470411473374,-0.004456957538569903,0.00023654290212013582
4.54,-0.21779886616002386,-0.15350301322492044,-0.004570559077876624,0.013625312765524186,-0.006685996590820366,0.0002534217386073162
4.55,-0.21720722681806137,-0.15434187782936704,-0.017580181426168906,0.015276428203029945,-0.0086888819563226,0.0002653964227897909
4.56,-0.21653051511805188,-0.1553188456382415,-0.02847635105496238,0.0053418103836124515,0.0018730148539715802,0.00018063685709692357
4.57,-0.21719180562485008,-0.15760644747953023,0.03107455806450332,0.00994264564626825,-0.0032124701183282676,0.00022665608530990301
4.58,-0.21590384399416962,-0.15879201058943693,0.011334915255289957,0.011030635848560502,-0.004577620676572417,0.00022879857469752384
4.59,-0.2157393907609162,-0.1590594195999273,-0.004530697861326871,0.012905296371507174,-0.006821200718593139,0.0002458591046247923
4.6,-0.21513947256579513,-0.15982277350001795,-0.01753741242893625,0.014542438098367099,-0.008836641954679711,0.00025796588548212586
4.61,-0.2144532454195769,-0.16072481102913372,-0.028430941272361565,0.004709751858751613,0.0018044373117989173,0.00017262814312744764
4.62,-0.21508836866246384,-0.1629743577957754,0.031113844798369428,0.009268750435187842,-0.003317269241515027,0.0002190444616288813
4.63,-0.2137901019949595,-0.16407711332266928,0.011377073994012221,0.010348852833232901,-0.004690588796950543,0.00022123245860745138
4.64,-0.2136223413629068,-0.16427404179175653,-0.004485504883078306,0.01220744882538137,-0.006948498902376362,0.00023845945434023896
4.65,-0.21301495646497415,-0.16496452183822896,-0.017489624291044947,0.013830538000706417,-0.008976310864716012,0.0002506878067968551
4.66,-0.2123200232873046,-0.16579418250284306,-0.02838080588318803,0.004100795715422512,0.0017426913244675529,0.00016484572624653565
4.67,-0.2129294307451346,-0.16800580656450848,0.03115836919143078,0.008617508874609882,-0.003414701558429976,0.0002116183242513852
4.68,-0.21162175784184,-0.16902859506728873,0.011424155816897041,0.009689661425590948,-0.004796080505406676,0.0002138503328300549
4.69,-0.2114514412099311,-0.16915784326609895,-0.004435716389750155,0.01153206700971365,-0.007068110012359654,0.00023122881393018694
4.7,-0.21083737628657673,-0.16977810263885118,-0.017437534873820937,0.013141013706876023,-0.009108108073597203,0.00024356835596664727
4.71,-0.2101345216587447,-0.17053795725807674,-0.02832664518948036,0.003515162161786692,0.0016875529547230438,0.00015729358336331428
4.72,-0.21071866513011628,-0.17271188801792903,0.031207398567545397,0.007989148199091797,-0.0035049894670690597,0.0002043826096872542
4.73,-0.2094024566545727,-0.17365755545117878,0.011475446619613194,0.00905327705034174,-0.004894318514602263,0.00020665705398334252
4.74,-0.2092303083500724,-0.1737219270525614,-0.004382026936866623,0.010879357919637844,-0.00718025692133558,0.00022417231787462717
4.75,-0.20861032421493064,-0.17427462617902734,-0.017381820658357583,0.012474062185912911,-0.009232256850229548,0.00023661283356196292
4.76,-0.20790030770712065,-0.1749672540674041,-0.02826911835285273,0.002952984362519128,0.0016387950742369779,0.00014997473743090108
4.77,-0.20845963810245394,-0.17710380975088924,0.031260242181474496,0.00738380941621649,-0.003588358623228884,0.00019734136377395353
4.78,-0.20713573654518314,-0.17797519865414557,0.011530273997806262,0.008439829965287745,-0.004985528665989378,0.0001996565978533157
4.79,-0.20696245353946097,-0.1779774921173427,-0.004325089664192205,0.010249444394451083,-0.007285165537288422,0.0002172942479544321
4.8,-0.20633728492924774,-0.17846529026144253,-0.017323117038614555,0.011829797279642439,-0.009348983388848263,0.00022982570875189934
4.81,-0.20562084095843147,-0.1790932709111459,-0.028208843829702346,0.002414314167434043,0.0015961882998865723,0.0001428913072127215
4.82,-0.20615580741178974,-0.18119285064344126,0.0313162510412468,0.0068015529799268434,-0.0036650370122764146,0.00019049778457904044
4.83,-0.2048250267705498,-0.1819927919521902,0.01158800697176332,0.007849370902679415,-0.005069939012708013,0.00019285210207781194
4.84,-0.2046512787146071,-0.18193579258252157,-0.004265516651003054,0.00964237072382339,-0.007383063896838319,0.00021059807342801174
4.85,-0.20402163432464704,-0.18236133995763737,-0.01726201871221633,0.011208255276133247,-0.009458515913266572,0.000223210657748916
4.86,-0.20329947162167628,-0.182927245320208,-0.028146399655426535,0.0018991277051975935,0.0015595018694411905,0.0001360445577427437
4.87,-0.20381052092233176,-0.184990321523415,0.031374817455187554,0.006242364329677266,-0.0037352540811873705,0.00018385426617491545
4.88,-0.20247364673764423,-0.18572162701513406,0.011648055604496221,0.0072818765747878905,-0.005147778962507504,0.0001862459096621094
4.89,-0.20230007585553267,-0.18560809957435254,-0.0042038793779397565,0.009058108116981801,-0.007474181318472237,0.00020408649207560262
4.9,-0.20166663812659635,-0.18597403006914703,-0.01719908012454141,0.01060940034466368,-0.00956108384067557,0.00021677060313446053
4.91,-0.2009394402335829,-0.18648041737456822,-0.02808232407502942,0.0014073308313473695,0.0015285044578390132,0.00012943495115805173
4.92,-0.20142701547598563,-0.1885075285112947,0.03143537469441071,0.005706159284772488,-0.0037992399296675047,0.00017741244298268493
4.93,-0.20008480504429826,-0.18917298380660696,0.011709870415543833,0.006737255033333663,-0.005219278479480997,0.0001798396130281407
4.94,-0.19991202641733707,-0.18900566572721544,-0.004140709224387251,0.008496560024755032,-0.007558747614307222,0.00019776147182259536
4.95,-0.19927545153564097,-0.18931459019544405,-0.017134816099328987,0.010033129822346828,-0.00965691700371015,0.0002105077537842144
4.96,-0.19854387652173955,-0.18976399532188992,-0.02801711612043789,0.0009387644213128057,0.0015029649353423772,0.00012306219760828787
4.97,-0.19900841678577308,-0.1917557389496949,0.031497396326685134,0.005192789284732024,-0.003857224559007051,0.0001711732344054208
4.98,-0.19766159919498705,-0.19235809708639806,0.011772941821419636,0.006215350873864033,-0.0052846673432388885,0.00017363409832230723
4.99,-0.19749020065518152,-0.19213969224551875,-0.004076498187899347,0.007957567305801999,-0.007636992358995349,0.000191624292675237
5.0,-0.19685111894318652,-0.1923941923065442,-0.017069702495930983,0.00947927934397932,-0.009746244929349666,0.00020442364513361652
5.01,-0.19611579947564906,-0.19278912372300283,-0.0279512363476897,0.0004932095005768296,0.0014826530691057216,0.00011692530597110656
5.02,-0.1965577391516149,-0.19474614983749916,0.03156039548812828,0.004702046467937581,-0.00390943717715837,0.0001651368894940714
5.03,-0.19520701535213902,-0.1952881254574379,0.01183679940730542,0.005715950277572049,-0.005344174463970728,0.00016762958972952596
5.04,-0.1950375580150876,-0.19502129845250238,-0.004011699656913947,0.007440913229739802,-0.007709144214175557,0.0001856755887240487
5.05,-0.19439657389597187,-0.19522392086912532,-0.0170041770797269,0.008947627808053622,-0.009829296173049307,0.0001985191795449888
5.06,-0.19365811752436457,-0.19556685402655205,-0.027885107671821174,7.039220538379402e-05,0.0014673401697082849,0.00011102263412764859
5.07,-0.19407788553138516,-0.19748985879530778,0.031623924128254544,0.004233668582089929,-0.003956105558434065,0.00015930303141132332
5.08,-0.19272392894009727,-0.1979741227753351,0.011901010967818593,0.005238785884299291,-0.005398027251777793,0.00016182569356316433
5.09,-0.19255694727604578,-0.19766149375044506,-0.003946729245640768,0.006946328311105768,-0.0077754303068535095,0.00017991538999128653
5.1,-0.1919146394868676,-0.197814745286351,-0.01693864042806581,0.008437902173083716,-0.009906297706443582,0.0001927946665584923
5.11,-0.19117362892728806,-0.1981081175639332,-0.02781911634386347,-0.00033001143131942967,0.0014567996844316172,0.00010535193857506419
5.12,-0.1915716484290897,-0.19999783731350362,0.03168757204186079,0.003787343721249464,-0.00399745545605226,0.00015367070148046932
5.13,-0.1902151049648637,-0.20042701196487656,0.011965181645479106,0.004783541491705136,-0.005446451038492976,0.000156221441921821
5.14,-0.1900511071895039,-0.200071151992276,-0.003881965913166141,0.00647349496933245,-0.00783607565988865,0.00017434316391926998
5.15,-0.18940802927858158,-0.20017749469580792,-0.016873456907262607,0.007949782079610352,-0.009977474356787586,0.0001872498628285097
5.16,-0.18866502255576734,-0.20042370081796435,-0.027753612990011334,-0.0007083708729120567,0.0014508077390407367,9.99104231762825e-05
5.17,-0.18904171042777307,-0.20228090633622742,0.03175096580321224,0.0033627148853523645,-0.004033710065747812,0.00014823840262695562
5.18,-0.187683199008859,-0.2026575611324688,0.012028952784959301,0.004349856576678396,-0.005489668550172556,0.00015081533572452424
5.19,-0.18752266758070846,-0.2022609879492876,-0.0038177529759764184,0.006022052010972312,-0.007891302672766158,0.00016895785631615694
5.2,-0.1868793481207831,-0.20232283504562076,-0.01680895588052067,0.007482904294312562,-0.01004304829630381,0.00018188401156675598
5.21,-0.18613487895891012,-0.20252422286759497,-0.027688913730727904,-0.0010650966542093106,0.0014491436300167158,9.469478686845214e-05
5.22,-0.18649064536191418,-0.20434971413685332,0.031813767611410526,0.002959384359159073,-0.004065089538502738,0.00014300414204037205
5.23,-0.18513075840331794,-0.2046763617880032,0.012092000778451961,0.003937330636118884,-0.00552789942831618,0.00014560538695539675
5.24,-0.18497415037899145,-0.2042415361103167,-0.003754399315880619,0.005591598931464711,-0.007941330650698917,0.00016375793159471613
5.25,-0.1843310933935527,-0.20426124820893676,-0.016745432889209155,0.007036866973673394,-0.010103238579453791,0.0001766958813311709
5.26,-0.183585671642561,-0.2044201151196745,-0.02762530147748521,-0.0014006361408005234,0.0014515902691573518,8.970127017271948e-05
5.27,-0.18392091970298452,-0.206214716147457,0.03187567408247105,0.0025769179085510727,-0.00409181054046,0.0001379654729036131
5.28,-0.18256022354279366,-0.20649380926940353,0.012154035795575169,0.003545527345169776,-0.005561359797861437,0.0001405891599680603
5.29,-0.18240797110991025,-0.20602313147932705,-0.0036921807122780592,0.005181700034662437,-0.007986375380088666,0.00015874141215774695
5.3,-0.18176565657057608,-0.2060030133055335,-0.016683150940721703,0.006611233745573275,-0.010158260726163269,0.00017168380401773857
5.31,-0.1810197685614412,-0.20612160288813186,-0.027563027185095734,-0.0017154694738404789,0.0014579345825739103,8.492570036738097e-05
5.32,-0.1813348941581694,-0.20788615699096624,0.03193641488152821,0.0022148487930044505,-0.004114085858002189,0.00013311953505430317
5.33,-0.17997392951940583,-0.20812008514781155,0.012214800442222895,0.003173978531864962,-0.005590261879933566,0.00013576381171777837
5.34,-0.17982644056502295,-0.20761589242468403,-0.0036313411566624154,0.00479188836921369,-0.008026648748329463,0.00015390591680110928
5.35,-0.17918532478233828,-0.20755818987971963,-0.016622341894034776,0.006205537608042181,-0.01020832634897794,0.00016684571192897215
5.36,-0.17843943385997818,-0.20763868904261074,-0.027502311290561465,-0.0020101057006944954,0.00146796786609657,8.036353520555269e-05
5.37,-0.17873482530461615,-0.2093740544317768,0.03199575132839527,0.0018726815938789007,-0.004132124045974509,0.00012846309446092855
5.38,-0.17737410804130604,-0.20956514150682892,0.012274068357243095,0.0028221879679649845,-0.005614813647318964,0.000131126130806556
5.39,-0.17723176647166383,-0.2090297053936041,-0.0035720943003525463,0.004421669481690655,-0.008062358405912705,0.00014924869802197027
5.4,-0.17659228277011607,-0.2089366030677553,-0.016563207889674914,0.005819284645187589,-0.010253642822094006,0.00016217917380881427
5.41,-0.17584682971971688,-0.20898113958445208,-0.027443345089750437,-0.002285079091077711,0.0014814860991570668,7.600990507602323e-05
5.42,-0.1761228676855353,-0.21068818511160714,0.032053474958715356,0.0015498958589130478,-0.004146129116985095,0.00012399258141241833
5.43,-0.17476288906692616,-0.2108386872379242,0.012331642729179748,0.0024896349764895707,-0.005635218520600609,0.00012667257524260654
5.44,-0.17462605583773438,-0.21027421147401526,-0.003514624919986886,0.004070524987071197,-0.008093707468761795,0.00014476667813512556
5.45,-0.17398861487549766,-0.21014783053274755,-0.01650592282409491,0.005451957561013419,-0.01029441299020516,0.0001576814297487275
5.46,-0.17324401849094784,-0.21015847086580663,-0.027386292282827185,-0.00254094563763159,0.0014982902192233211,7.185965352267366e-05
5.47,-0.17350107576419305,-0.21183807217717288,0.032109406014058095,0.00124594956400601,-0.004156300269719981,0.00011970412733545342
5.48,-0.172142303327405,-0.2119501758723885,0.012387354768605974,0.0021757778571304086,-0.005651675102887259,0.00012239930883080818
5.49,-0.17201131665700586,-0.21135879475053798,-0.0034590904274267587,0.00373791595785615,-0.008120894258756232,0.00014045648411529693
5.5,-0.17137630720753805,-0.21120119110484836,-0.016450633921749613,0.005103019032513193,-0.010330834915108928,0.00015334942488414073
5.51,-0.17063296482433543,-0.2111799386472768,-0.027331290439747136,-0.00277827973926796,0.0015181863588053113,6.790737605382694e-05
5.52,-0.17087140626870223,-0.21283297455987338,0.03216339185208028,0.000960282393968784,-0.004162831654238196,0.00011559360016847453
5.53,-0.16951428435163507,-0.21290879528734763,0.01244106219822072,0.0018800571313202172,-0.00566437695110972,0.00011830223612518662
5.54,-0.16938946057365456,-0.2122925721970148,-0.003405622441832179,0.003423286133672368,-0.008144112080384448,0.0001363144810968585
5.55,-0.16875724998755004,-0.21210573507346453,-0.016397463165063186,0.004771914883977168,-0.010363101658031783,0.00014917984181384578
5.56,-0.16801553805123604,-0.2120545287276343,-0.027278452581214196,-0.002997671065044105,0.0015409860471176096,6.414745718710459e-05
5.57,-0.1682357204657592,-0.21368187780090864,0.032215305418858975,0.000692318844488525,-0.004165912172195814,0.00011165663823485624
5.58,-0.16688067091763514,-0.21372345889503208,0.012492647645245825,0.0016018986092872231,-0.005673512381836002,0.00011437703588791968
5.59,-0.16676230504941714,-0.21308438527434248,-0.003354328343974089,0.0031260649537687858,-0.008163549031511716,0.00013233680447573133
5.6,-0.16613323992942242,-0.21287023607818867,-0.016346508973086316,0.0044580770849942195,-0.010391401095649403,0.0001451691316873635
5.61,-0.16539351459954332,-0.21279094902126872,-0.027227868741874772,-0.0031997215958166295,0.0015665063784223183,6.0574105689357446e-05
5.62,-0.16559578675412467,-0.21439348654617163,0.03226504364128857,0.00044147114805384493,-0.0041657253099672085,0.00010788868257046966
5.63,-0.1642432095394497,-0.21440279832418696,0.012542017069350209,0.0013407162819086586,-0.0056792643095785154,0.00011061919301172369
5.64,-0.16413157599259875,-0.21374279289609888,-0.0033052928483101596,0.0028456704152708193,-0.008179387846229383,0.0001285193905697841
5.65,-0.16350598279757378,-0.21350318434976145,-0.016297847729163095,0.004160926575086174,-0.010415915767785184,0.00014131354391715465
5.66,-0.16276858051611498,-0.21339762326100242,-0.02717960748022108,-0.0033850428405058364,0.001594570148983239,5.718138798409893e-05
5.67,-0.16295328304494205,-0.21497621830235403,0.03231252581059607,0.00020714202700499243,-0.004162449002739024,0.00010428500767296016
5.68,-0.16160355706063,-0.2149551575936215,0.012589098199455862,0.0010959150405960958,-0.005681810115677334,0.00010702402887455514
5.69,-0.16149891024497265,-0.2142760658596643,-0.0032585795928241623,0.0025815117604854037,-0.008191805767877898,0.00012485800580604343
5.7,-0.16087709589385213,-0.21401278145205538,-0.016251535326361477,0.0038798759183202363,-0.010436822754877985,0.00013760915448359388
5.71,-0.16014233409578083,-0.2138826858644194,-0.027133717486194087,-0.003554253223379311,0.0016250059647079894,5.396325970977212e-05
5.72,-0.16030979971048964,-0.215438198711837,0.032357692036910635,-1.1272722715264909e-05,-0.004156255527536193,0.00010084075065049168
5.73,-0.15896328317666075,-0.21538858856473553,0.012633838881725978,0.0008668932288361354,-0.005681321545731373,0.00010358673010569028
5.74,-0.15886585828184252,-0.2146921825652015,-0.0032142326755746353,0.002332991996916666,-0.008200974450227601,0.0001213482744124653
5.75,-0.1582481108997058,-0.2144069362586265,-0.016207608748430857,0.0036143317916102324,-0.010454293583221372,0.00013405189281024145
5.76,-0.15751628851035093,-0.2142539782390429,-0.02709022911773218,-0.0037079756384362983,0.001657648321260908,5.091359542415606e-05
5.77,-0.1576668418934446,-0.21578725792892328,0.032400501650542424,-0.00021438181321509773,-0.004147311423379942,9.755093875854772e-05
5.78,-0.15632387327713104,-0.21571084765525939,0.012676205622952352,0.00065304502932791,-0.005677964633776802,0.0001003023757528718
5.79,-0.1562338869831592,-0.21499882602249443,-0.003172278262297823,0.002099510253974222,-0.008207059885026444,0.00011798570460265678
5.8,-0.15562047643413734,-0.2146932621194253,-0.016166087588587175,0.0033636973107300703,-0.010468494156187839,0.0001306375671969787
5.81,-0.1548918745797323,-0.21451904618885465,-0.027049155875147335,-0.0038468351666784413,0.0016923376586153744,4.8026216458944075e-05
5.82,-0.15502583245563528,-0.21603092838162752,0.032440931621025015,-0.00040279620751232587,-0.00413577743664838,9.441051532196033e-05
5.83,-0.15368673121685106,-0.215929393734271,0.012716181982952435,0.0004537626909510437,-0.005671899651310727,9.716596284882364e-05
5.84,-0.15360438226252882,-0.215203381923601,-0.0031327260341385,0.00188046398062867,-0.008210222354027397,0.00011476571324987262
5.85,-0.15299556082482013,-0.21487907524431193,-0.01612697555053444,0.00312737419832704,-0.010479584709563939,0.0001273618888064602
5.86,-0.15227044347199126,-0.21468513850209092,-0.027010495919910227,-0.0039714569517847725,0.0017289203918070383,4.529491693826528e-05
5.87,-0.15238811485573933,-0.21617644350158116,0.03247897509162101,-0.0005771270191577303,-0.004121808489879654,9.141436404824126e-05
5.88,-0.1510531818738059,-0.21605138710079075,0.012753767064666022,0.0002684386000363168,-0.005663281079401443,9.417243038398144e-05
5.89,-0.15097865190938364,-0.21531293785237438,-0.0030955706886715006,0.0016752509885132106,-0.008210616403739723,0.00011168364905512991
5.9,-0.1503746549857965,-0.21497139415238564,-0.016090261931722694,0.0029047647984583175,-0.01048771978925166,0.00012422049420753617
5.91,-0.14965326950999724,-0.21475920653379887,-0.026974233513499257,-0.004082464229513073,0.0017672489196536544,4.2713487982704696e-05
5.92,-0.1497549556006561,-0.21623073750198785,0.032514639869418716,-0.0007379835639689464,-0.004105553672271395,8.85573317459197e-05
5.93,-0.14842447427554362,-0.21608368957259927,0.012788974119715135,9.646720061388763e-05,-0.005652257602146376,9.131668169976038e-05
5.94,-0.1483579282890446,-0.21533428349762573,-0.0030607934498050327,0.001483271345154238,-0.008208390841191099,0.00010873481422147687
5.95,-0.14775897515306724,-0.2149769399650836,-0.016055923008906348,0.002695273942354113,-0.01049304824963626,0.00012120896648619942
5.96,-0.14704155301359378,-0.2147479048542067,-0.026940340420722464,-0.004180476505960711,0.0018071816131636706,4.027574012771533e-05
5.97,-0.14712754751400325,-0.21620044620362933,0.03254794698648311,-0.0008859715590495303,-0.004087156250174239,8.583424946826513e-05
5.98,-0.1458017839794934,-0.21603286531224342,0.012821829047382494,-6.275323152170537e-05,-0.005638972119811886,8.859360532343608e-05
5.99,-0.14574337139805493,-0.2152739118344016,-0.003028363337875817,0.0013039291221860622,-0.008203688749037069,0.00010591448465284255
6.0,-0.14514966558465403,-0.21490213780062106,-0.016023923423702513,0.002498310670276855,-0.0104957132709797,0.00011832285494119166
6.01,-0.14443642299966086,-0.21465759263428197,-0.0269087772686305,-0.0042661078796829115,0.0018485827852384729,3.7975523991961625e-05
6.02,-0.14450701208090777,-0.21609190872240447,0.03257892930541573,-0.0010216914641271416,-0.004066753695987982,8.323995210944316e-05
6.03,-0.14318621637698925,-0.2159051827632652,0.012852369115634588,-0.00020981895594989202,-0.005623561780041364,8.599809427191895e-05
6.04,-0.14313607131555273,-0.2151380210246856,-0.0029982386262616956,0.0011366340035248096,-0.008196647518430617,0.00010321792870214862
6.05,-0.14254780150935176,-0.21475311890561954,-0.0159942175326222,0.002313289814459122,-0.010495852394243449,0.00011555769338679867
6.06,-0.14183894002428588,-0.21449433607045876,-0.026879494816611782,-0.004339965502539979,0.0018913226432730867,3.580674923681186e-05
6.07,-0.1418944027520297,-0.215911169867411,0.032607630213732364,-0.0011457369601335639,-0.004044477733872632,8.07692964851889e-05
6.08,-0.1405788089670068,-0.21570661727920992,0.012880641575563345,-0.00034531927088332106,-0.0056061580255992215,8.352506385697073e-05
6.09,-0.14053705132965888,-0.21493251728621487,-0.002970368058186068,0.0009808027585874817,-0.008187398898119048,0.00010064042449821568
6.1,-0.13995439186231806,-0.2145357235949774,-0.015966750641638328,0.0021396334482086166,-0.010493597571851601,0.00011290901709093662
6.11,-0.1392500989538803,-0.21426391139556245,-0.026852435190960477,-0.0044026481740966905,0.001935277226132029,3.376340186328845e-05
6.12,-0.13929070718177172,-0.2156639834804963,0.03263410231824082,-0.0012586935598821389,-0.0040204544008217895,7.841717793544525e-05
6.13,-0.137980534660187,-0.21544285445429523,0.012906702453463481,-0.0004698351474087734,-0.005586886657171265,8.116946802934866e-05
6.14,-0.13794727038884957,-0.21466301838302115,-0.002944692099049462,0.0008358605856888426,-0.00817606905832172,9.817727588598527e-05
6.15,-0.13737038191408146,-0.21425550487563783,-0.01594146016969944,0.001976772206311383,-0.010489075232936152,0.00011037237838073466
6.16,-0.13667083180735062,-0.2139718086624498,-0.026827533137208093,-0.004454745064302643,0.0019803283269823075,3.183955989716501e-05
6.17,-0.13669685042572155,-0.21535581631759726,0.03265840625488181,-0.0013611373456282809,-0.003994804121624675,7.617854549021763e-05
6.18,-0.1353923040881,-0.21511929422679543,0.012930615360673414,-0.0005839379894911435,-0.005565867909797768,7.892631430328766e-05
6.19,-0.13536762608623576,-0.2143348577909876,-0.002921144082179694,0.0007012423308235921,-0.008162778667958462,9.582382701829229e-05
6.2,-0.13479665632587512,-0.2139177327897812,-0.015918276874415938,0.0018241464819388517,-0.010482406361666939,0.0001079433609519261
6.21,-0.1341020102074708,-0.2136232361760193,-0.026804717032646863,-0.004496834559175199,0.0020263634033241273,3.0029407516757027e-05
6.22,-0.13411369746307855,-0.2149918526317407,0.032680609551860584,-0.0014536338282793494,-0.003967641796399401,7.404841564396051e-05
6.23,-0.13281496855199748,-0.21474105552421463,0.012952450365588675,-0.0006881885145208651,-0.005543216541610353,7.679067730653001e-05
6.24,-0.1327989573240984,-0.21395308948513048,-0.002899651327936681,0.0005763935870402616,-0.008147642983934913,9.35754756412197e-05
6.25,-0.13223404142337358,-0.21352739925539765,-0.01589712583793812,0.0016812075052499433,-0.01047370658738031,0.00010561759292177455
6.26,-0.1315444484006889,-0.21322312547589206,-0.026783910005434564,-0.004529483224190899,0.002073275475566688,2.832724768089488e-05
6.27,-0.1315420560032976,-0.2145769992623059,0.032700785501660334,-0.0015367369230088156,-0.003939076899371919,7.202188478666759e-05
6.28,-0.130249322687348,-0.21431298151242117,0.012972282936729584,-0.0007831357491674571,-0.005519041933577771,7.475771100401503e-05
6.29,-0.1302420468007881,-0.2135224932597879,-0.0028801361295904826,0.0004607716796298344,-0.00813077195119536,9.14276851177573e-05
6.3,-0.12968330821649943,-0.21308922348417525,-0.015877927532770286,0.001547418308904252,-0.010463086285227375,0.00010339075866811332
6.31,-0.12899890567297234,-0.21277613683423624,-0.026765030876063634,-0.0045532448801057545,0.002120963015362869,2.6727513317474508e-05
6.32,-0.12898267897298865,-0.21411589133712994,0.03271901219292772,-0.0016109880360442013,-0.003909213587695552,7.009414034253888e-05
6.33,-0.12769610709284507,-0.21383964529775312,0.012990192956863211,-0.0008693161353253766,-0.005493448199055889,7.282265964589802e-05
6.34,-0.1276976238884231,-0.2130475805195431,-0.0028625167658447026,0.000353846542321186,-0.00811227031234927,8.937599523707136e-05
6.35,-0.12714517474421427,-0.2126076578878866,-0.015860598727712727,0.001422254585660119,-0.010450650686173374,0.00010125860949946255
6.36,-0.12646608904987033,-0.2122866652420896,-0.026747995089948517,-0.004568659785936173,0.002169329824911753,2.5224777134740106e-05
6.37,-0.12643626732256052,-0.21361289830323926,0.032735371569003746,-0.0016769152574184877,-0.003878150819125556,6.826047066923739e-05
6.38,-0.12515601071072524,-0.21332535608209469,0.013006263781534244,-0.0009472527409547768,-0.00546653430198645,7.098086749259176e-05
6.39,-0.12516636708426176,-0.21253260053200052,-0.0028467083801331228,0.00025510148966132113,-0.008092237725735025,8.74160318588202e-05
6.4,-0.12462030877458119,-0.2120868943844556,-0.015845053340513005,0.0013052054432192016,-0.010436499995214309,9.921697320314636e-05
6.41,-0.12394665585446774,-0.21175884676871704,-0.026732715578958732,-0.004576253923909304,0.002218284908341559,2.381376011921991e-05
6.42,-0.12390347237101196,-0.21307213045496098,0.03274994848645463,-0.0017350326545333972,-0.003845982477452465,6.651627377227653e-05
6.43,-0.12262967373999345,-0.21277416573539654,0.013020581457467983,-0.0010174545706903456,-0.005438394182642827,6.922778737106851e-05
6.44,-0.12264890639102077,-0.21198154703583327,-0.002832623779980281,0.00016403389068329172,-0.008070768890844132,8.554351544318641e-05
6.45,-0.12210933036271854,-0.21153087105929558,-0.015831203308280806,0.0011957740613986363,-0.010420729516754015,9.72617625199995e-05
6.46,-0.1214412160877032,-0.21119656531176645,-0.02671910350748874,-0.004576538381213174,0.0022677423362059447,2.2489338785369788e-05
6.47,-0.12138489839941258,-0.21249744577289675,0.032762829986765496,-0.0017858396614272086,-0.0038127975046724893,6.485706489051032e-05
6.48,-0.12011768980357829,-0.2121898757145857,0.013033233825510138,-0.00108041597112673,-0.005409116889932763,6.755898811804372e-05
6.49,-0.12014582608799174,-0.21139816520410193,-0.0028201742363620497,8.015574892603766e-05,-0.008047953680105094,8.375426851892934e-05
6.5,-0.11961281401795532,-0.21094327916415523,-0.015818959271385324,0.0010934782566738872,-0.010403429786162564,9.538898259528085e-05
6.51,-0.11895033491526874,-0.21060345964940552,-0.026707069027409602,-0.004570008823472619,0.0023176211041323683,2.1246551242488538e-05
6.52,-0.11888110513780248,-0.21189245708264082,0.0327741045058616,-0.0018298205587207101,-0.003778680038882924,6.327848300933582e-05
6.53,-0.11762060850628586,-0.21157604421340181,0.01304430988113836,-0.0011366161257824994,-0.0053787867192479156,6.597016096603959e-05
6.54,-0.11765766672056088,-0.2107859588384997,-0.0028092701676030174,2.994193780135254e-06,-0.008023877276055316,8.204422214209065e-05
6.55,-0.11713129151047497,-0.2103275704445906,-0.015808231239589077,0.000997850959044017,-0.010384686706533018,9.359473745620381e-05
6.56,-0.11647453501240079,-0.2099829307855572,-0.02669652189979388,-0.004557145054960668,0.0023678449865085736,2.008060214510793e-05
6.57,-0.1163926099678747,-0.2112605394266609,0.032783861181329144,-0.0018674440392992,-0.0037437095570220695,6.177629635882822e-05
6.58,-0.11513893763748229,-0.21093599364085946,0.013053899108328437,-0.0011865186348207638,-0.005347483354992978,6.445712492934169e-05
6.59,-0.11518492787132573,-0.21014819791886907,-0.0027998217699831685,-6.790811194811656e-05,-0.007998620313028924,8.040942139886121e-05
6.6,-0.11466525364767222,-0.20968696457401848,-0.015798929258181715,0.0009084406060810091,-0.010364581689813789,9.187523556718152e-05
6.61,-0.11401429890867121,-0.20933814942836193,-0.02668737209887695,-0.004538410660631859,0.00241834238612422,1.898686659258267e-05
6.62,-0.11391989033882055,-0.21060483779145045,0.03279218928398109,-0.0018991628548712131,-0.0037079610215550937,6.034640695417658e-05
6.63,-0.11267314565799325,-0.21027281825958255,0.013062090848947605,-0.0012305711746974871,-0.0053152820169124855,6.301583124631362e-05
6.64,-0.11272807004303331,-0.2094879261971272,-0.0027917395772902864,-0.0001329926434564218,-0.007972259022506867,7.884603000600041e-05
6.65,-0.11221515297421547,-0.20902445693415928,-0.015790963923123513,0.0008248114589422636,-0.010343191801436565,9.022679451371609e-05
6.66,-0.11157007119066975,-0.20867206378838432,-0.026679530344964064,-0.004514252725179596,0.0024690461805646647,1.796089304373667e-05
6.67,-0.11146338589895777,-0.2099282747813902,0.03279917759613227,-0.001925413538656562,-0.003671505030328667,5.898485423548308e-05
6.68,-0.11022366368962366,-0.20958939204618332,0.01306897380537464,-0.0012692052330131385,-0.005282253609448882,6.164236693495202e-05
6.69,-0.11028751700337125,-0.20880796911981747,-0.0027849350114905747,-0.0001926847596518406,-0.007944865381360711,7.735033406221593e-05
6.7,-0.10978140579709361,-0.20834282640436186,-0.01578424686066171,0.0007465438450078162,-0.010320589907714704,8.864584486603227e-05
6.71,-0.10914226056257803,-0.20798740742122845,-0.026672908557401342,-0.0044851016244268896,0.002519893566120977,1.6998405311307183e-05
6.72,-0.10902350084052159,-0.20923355871005356,0.03280491398527374,-0.0019466161995598781,-0.003634407968831138,5.768781786386691e-05
6.73,-0.10779088768231304,-0.20888837656940495,0.013074635534238155,-0.0013028359139573332,-0.005248464873379585,6.033295751771979e-05
6.74,-0.10786365798765019,-0.20811094173289746,-0.002779320782408945,-0.00024739351856666427,-0.007916507262260293,7.5918745003403e-05
6.75,-0.10736439406855425,-0.2076446433996182,-0.01577869118918329,0.0006732343316971423,-0.01029684482528103,8.712893327325171e-05
6.76,-0.10673124208437912,-0.20728670722114373,-0.02666742032531033,-0.004451370884474279,0.002570825899954868,1.6095303700269876e-05
6.77,-0.10660060564049445,-0.20852319151387633,0.03280948491557467,-0.001963174383303548,-0.003596732164151551,5.645161972971225e-05
6.78,-0.10537518075892649,-0.20817222915248124,0.013079162055618099,-0.0013318618098425246,-0.00521397853902708,5.908396897105843e-05
6.79,-0.10545684947516065,-0.20739925677304427,-0.002774811349581796,-0.0002975115580097713,-0.007887248585549109,7.454780181412242e-05
6.8,-0.10496446776642188,-0.20693227786416912,-0.01577421188336814,0.0006044958359049993,-0.010272021471872294,8.567272483777689e-05
6.81,-0.1043373590547958,-0.20657229149456668,-0.02666298120956867,-0.004413457104153655,0.0026217885411323853,1.5247665352955943e-05
6.82,-0.10419503940539698,-0.2077994770210978,0.03281297508372916,-0.001975474996115635,-0.003558536040012732,5.5272725228442155e-05
6.83,-0.10297687474292161,-0.20744321087562412,0.01308263744448368,-0.0013566649343602858,-0.005178853480454705,5.789190895434783e-05
6.84,-0.10306741749843695,-0.20667513275896,-0.002771323206474108,-0.0003434150371186967,-0.007857149472001234,7.323417254683767e-05
6.85,-0.10258194656387332,-0.206207907478273,-0.0157707261294604,0.0005399576733648619,-0.010246181017905694,8.427400481969662e-05
6.86,-0.10196092503633736,-0.20584629803366283,-0.026659509089199673,-0.004371739936455309,0.0026727306912026575,1.4451743862230182e-05
6.87,-0.10180711154106348,-0.20706452897201189,0.03281546706368488,-0.001983888286688865,-0.0035198742722441813,5.41477438577491e-05
6.88,-0.10059627243208524,-0.2067033948538466,0.013085143573121627,-0.001377610713296828,-0.005143144869990489,5.6753427371417854e-05
6.89,-0.10069565920645118,-0.20594060214484955,-0.0027687752623961615,-0.00038546363458378673,-0.007826266395830828,7.197465519929422e-05
6.9,-0.10021712192553878,-0.205473525669575,-0.015768153573958443,0.00047926555213621727,-0.010219381038205721,8.292967971908116e-05
6.91,-0.09960222552507503,-0.20511068232309526,-0.026656924427825857,-0.0043265821247445435,0.0027236052348220043,1.3703968212851027e-05
6.92,-0.09943710388427007,-0.20632027929678998,0.03281704103130778,-0.0019887678822681424,-0.0034807979441679685,5.307342918912052e-05
6.93,-0.09823364923278177,-0.20595467429274095,0.013086759773628387,-0.0013950480286051463,-0.0051069043325888816,5.5665316317045876e-05
6.94,-0.09834184492518716,-0.20519751947389864,-0.0027670889934938714,-0.0004240005994698412,-0.007794652337456066,7.076617799942484e-05
6.95,-0.09787025867069588,-0.20473094986428464,-0.01576641661671374,0.0004220815142613254,-0.010191675663413374,8.163677778364228e-05
6.96,-0.09726152008227018,-0.2043672255336304,-0.026655150477949974,-0.004278329589695876,0.0027743685809956346,1.3000941108999613e-05
6.97,-0.09708527212382023,-0.20556848626007707,0.03281777451569212,-0.0019904508748433943,-0.0034413547013799296,5.204667826502906e-05
6.98,-0.09588925500736423,-0.20519877067748382,0.013087562651392659,-0.00140930931183301,-0.005070180099503481,5.462450945901416e-05
6.99,-0.09600621982741586,-0.20444756947846088,-0.0027661887713748,-0.00045935285067069665,-0.007762356935512095,6.96057991456927e-05
7.0,-0.09554159689173503,-0.20398182948966337,-0.015765440535275843,0.0003680838295243127,-0.010163115730567872,8.03924489875213e-05
7.01,-0.09493904361335126,-0.20361754272890664,-0.02665411350299962,-0.0042273115630325556,0.0028249805053816076,1.2339436744370871e-05
7.02,-0.09475184782559154,-0.20481074253453357,0.03281774222152478,-0.001989257953574973,-0.003401588905446726,5.1064530471580146e-05
7.03,-0.09356331581500399,-0.20443724186414158,0.013087625871932573,-0.0014207106830699174,-0.005033017160812218,5.362808090481545e-05
7.04,-0.09368900549588943,-0.20369227516248145,-0.0027660019163988636,-0.0004918311211893589,-0.00772942663766012,6.849070604932175e-05
7.05,-0.09323135344629918,-0.2032276540830935,-0.015765153706936985,0.0003169668450899545,-0.010133748932420236,7.919396452588603e-05
7.06,-0.09263500846401485,-0.20286309080574938,-0.026653742901672217,-0.004173840764271078,0.0028754039941157484,1.171639806907226e-05
7.07,-0.09243703988914831,-0.20404848330102254,0.032817015815922446,-0.0019854935796973982,-0.003361541786110027,5.012416593471476e-05
7.08,-0.09125603533277626,-0.2036714900821579,0.01308702005431428,-0.001429552131686297,-0.004995457416391784,5.267324360066091e-05
7.09,-0.09139040159311662,-0.2029330057862211,-0.0027664589374865045,-0.0005217301435497493,-0.007695904849792264,6.741821412342861e-05
7.1,-0.09093972380469495,-0.20246976122351157,-0.01576548769754993,0.0002684407946858191,-0.010103619965092214,7.803871586822117e-05
7.11,-0.09034960545051263,-0.20210517647889503,-0.02665397128787106,-0.00411821361684694,0.002925605089535214,1.1128933605622003e-05
7.12,-0.09014103618198988,-0.20328299422445184,0.032815663848495547,-0.0019794462003092615,-0.003321251591594402,4.922290348632213e-05
7.13,-0.08896759656096265,-0.20290276991019596,0.013085812611279835,-0.0014361177353061601,-0.004957539824935387,5.17573473082757e-05
7.14,-0.08911058753113821,-0.202170984771044,-0.002767493567645829,-0.0005493288728140317,-0.007661832083245143,6.638576516223218e-05
7.15,-0.0886668831157067,-0.20170934443619615,-0.015766377350345806,0.00022223157082059243,-0.010072770673699123,7.692421341195189e-05
7.16,-0.08808300592022533,-0.20134496409696112,-0.026654734623932086,-0.004060710500096765,0.0029755527381765817,1.0574313864010381e-05
7.17,-0.08786400485405466,-0.20251541926974426,0.0328137516181215,-0.0019713884975769876,-0.0032807537366810486,4.835819824479342e-05
7.18,-0.08669816327966373,-0.20213219606546318,0.013084067687074707,-0.0014406759135663283,-0.00491930055070036,5.0877876203548784e-05
7.19,-0.08684972360839538,-0.201407297515388,-0.0027690428350268803,-0.0005748907437866551,-0.007627246099708928,6.539092535200747e-05
7.2,-0.08641298808953479,-0.20094746090215665,-0.015767760865870173,0.000178080463431806,-0.010041240195621724,7.584808477610035e-05
7.21,-0.08583536260431401,-0.2005834833784803,-0.02665597223838745,-0.004001596033754691,0.003025218641363306,1.0049967403710075e-05
7.22,-0.08560609607854985,-0.2017467685178076,0.03281134117294471,-0.0019615776700315606,-0.0032400809482118417,4.7527638852520446e-05
7.23,-0.08444788125672176,-0.20136075114862706,0.01308184610415708,-0.0014434797133776847,-0.004880773107646893,5.0032446138827065e-05
7.24,-0.08460795267950516,-0.20064289902421706,-0.0027710471428576966,-0.0005986639591548208,-0.007592182053499132,6.443138295337052e-05
7.25,-0.08417817799255545,-0.20018503915864017,-0.015769579819746582,0.0001357438681798903,-0.010009065101117822,7.480807277315928e-05
7.26,-0.0836068115006583,-0.19982163702358946,-0.026657626843729076,-0.003941119391723294,0.003074577108684636,9.5534765881379e-06
7.27,-0.08336744294012988,-0.20097792571505124,0.03280849121267693,-0.0019502557427718138,-0.0031992634077593896,4.672894441102657e-05
7.28,-0.08221687988196891,-0.20058929317556817,0.013079205345434275,-0.0014447671225255067,-0.004841988500705583,4.921880160895392e-05
7.29,-0.08238540118554738,-0.19987862145853796,-0.0027734502605625266,-0.0006208818054316794,-0.007556672630945293,6.35049456930262e-05
7.3,-0.08196257624604186,-0.19942288648877593,-0.015771779153794796,9.49929674930489e-05,-0.009976279531020234,7.3802033095553e-05
7.31,-0.08139747258439911,-0.19906020812143765,-0.026659644571935814,-0.003879514642055346,0.003123604914598243,9.082573074864126e-06
7.32,-0.08114816317572604,-0.20020965579625738,0.03280525709747906,-0.0019376499035291491,-0.003158328891198112,4.59599611523339e-05
7.33,-0.08000527301987859,-0.19981856301143353,0.013076199545380973,-0.0014447614085974535,-0.004802975363932411,4.843481245910741e-05
7.34,-0.08018218068173155,-0.19911518148063578,-0.0027761993059982615,-0.0006417629937187818,-0.007520748186644266,6.260953790089143e-05
7.35,-0.07976629134986979,-0.19866169636451048,-0.015774307193794357,5.5613387319297116e-05,-0.009942915331285232,7.282793175128505e-05
7.36,-0.0792074515487684,-0.1982998674510128,-0.026661974867892013,-0.00381700111020066,0.003172281158433106,8.635133082375565e-06
7.37,-0.07894835999167071,-0.19944261208770797,0.03280169086572471,-0.0019239728616930933,-0.0031173029049542597,4.5218658883160786e-05
7.38,-0.07781316060828658,-0.19904919161817247,0.013072879498920997,-0.001443671480363582,-0.004763760095311496,4.767847037038726e-05
7.39,-0.07799838869004816,-0.198353187492728,-0.0027792447454544345,-0.0006615120224441325,-0.007484436876368896,6.174319742690366e-05
7.4,-0.07758941826807586,-0.19790205545433537,-0.015777115587312096,1.740483239785328e-05,-0.00990900218418041,7.18838422815825e-05
7.41,-0.07703684058668614,-0.19754118061321435,-0.02666457053379645,-0.0037537837627093784,0.0032205871279322364,8.209172472147785e-06
7.42,-0.07676812327161997,-0.1986773435280753,0.03279784125176377,-0.0019094232275165995,-0.0030762088187524968,4.450312723659252e-05
7.43,-0.0756406294755152,-0.198281707080028,0.013069292723599801,-0.001441692268859568,-0.004724366988048134,4.694788515732925e-05
7.44,-0.07583411008482699,-0.19759314660028338,-0.0027825403137171634,-0.000680319559353674,-0.007447764786450894,6.090407236972233e-05
7.45,-0.07543203938809029,-0.1971444507553599,-0.01578015925041143,-1.9819297252224484e-05,-0.009874567735941635,7.096794279157488e-05
7.46,-0.07488571952762868,-0.19678461490535426,-0.02666738766698984,-0.0036900536087456407,0.0032685061665625355,7.802841682111734e-06
7.47,-0.07460753092658479,-0.19791430151627765,0.03279375378362204,-0.0018941859088826782,-0.0030350679946661036,4.3811571763756544e-05
7.48,-0.07348775444171451,-0.19751654154909204,0.013065483486229823,-0.0014390051255778707,-0.004684818358160335,4.6241280909234255e-05
7.49,-0.07368941790986128,-0.19683547147764102,-0.0027860429785420138,-0.0006983628401899848,-0.007410756059477436,6.0090417647908976e-05
7.5,-0.07329422558655097,-0.19638927622800395,-0.01578339633212522,-5.623230609222299e-05,-0.009839637720740462,7.007851282317553e-05
7.51,-0.07275415697449716,-0.19603054610684012,-0.026670385491200932,-0.003625988116863393,0.0033160235447104933,7.414420545617326e-06
7.52,-0.07246664942783809,-0.1971538466882805,0.032789470756355854,-0.0018784325231191287,-0.00299389991235442,4.314230989609223e-05
7.53,-0.07135459949125789,-0.1967540378977617,0.013061492918353679,-0.0014357782352834958,-0.004645134668240059,4.555699200548898e-05
7.54,-0.07156437451527609,-0.19608048699382152,-0.002789712860717941,-0.000715806081600511,-0.007373433016162407,5.9300591441957467e-05
7.55,-0.07117603708195475,-0.19563683948398136,-0.015786788098992588,-9.199461663774941e-05,-0.009804236080832734,6.921393009768927e-05
7.56,-0.07064221108521451,-0.19527926498952297,-0.026673526374310086,-0.003561751644665597,0.003363126334887374,7.042313027579434e-06
7.57,-0.07034553522800024,-0.19639625543632633,0.032785031391924235,-0.0018623218215056273,-0.00295272229034937,4.249376680680081e-05
7.58,-0.06924121837670327,-0.1959944561669147,0.013057359034007732,-0.0014321670411254009,-0.0046053346472825895,4.48934590329893e-05
7.59,-0.06945903230359818,-0.19532843663405686,-0.0027935131363676646,-0.0007328009059742271,-0.0073358162732960145,5.8533051534108066e-05
7.6,-0.06907752453599869,-0.19488736810124863,-0.015790298819595705,-0.00012725419457297778,-0.009768385082784874,6.837266715374386e-05
7.61,-0.06854993056748526,-0.19453098365929122,-0.026676775721767854,-0.0034974958790756714,0.003409803291058956,6.6850419071820105e-06
7.62,-0.0682442352228918,-0.19564172625941012,0.03278047190136135,-0.0018460001242285584,-0.0029115512033009118,4.18644711981724e-05
7.63,-0.06714765575566162,-0.1952379798808579,0.013053116880712423,-0.0014283146798219227,-0.004565435406460954,4.424922463167843e-05
7.64,-0.06737343476004298,-0.1945794887348029,-0.002797409930366257,-0.0007494867760101072,-0.007297924857660592,5.7786351570676494e-05
7.65,-0.0669987297641228,-0.1941410158146084,-0.015793895755678022,-0.00016214698323603345,-0.009732105429686506,6.755328790445671e-05
7.66,-0.06647735542486544,-0.1937858416489746,-0.02668010178119573,-0.0034333602850809444,0.003456044732183699,6.341243434514448e-06
7.67,-0.06616278781734763,-0.19489038585618346,0.03277582554694902,-0.0018296017636733957,-0.0028704011950898087,4.125305103933061e-05
7.68,-0.06507394793686672,-0.19448472209582235,0.013048798637171899,-0.001424352424836577,-0.004525452550789726,4.362292929270487e-05
7.69,-0.06530761714529376,-0.19383374244341667,-0.002801372263050439,-0.0007659914369590692,-0.00725977631585774,5.7059137270104514e-05
7.7,-0.06493968639276204,-0.1933978685020321,-0.015797548957863228,-0.00019679734543778403,-0.009695416369286038,6.675444413620376e-05
7.71,-0.0644245178804681,-0.19304391185137604,-0.026683475633504372,-0.003369472560958084,0.003501842429984371,6.009661986268221e-06
7.72,-0.06410122363575965,-0.19414229497805024,0.03277112282873418,-0.001813249534078944,-0.0028292853877820035,4.0658229277547193e-05
7.73,-0.06302012350190012,-0.19373473124417728,0.013044433639919362,-0.0014204001355930846,-0.004485400286637907,4.301330713149622e-05
7.74,-0.06326160715275364,-0.19309123357125202,-0.002805371845937543,-0.0007824313646114269,-0.007221386820001839,5.635014259811412e-05
7.75,-0.06290042094292403,-0.19265794983347462,-0.015801231203482757,-0.0002313185107151916,-0.009658335798005558,6.59748719694172e-05
7.76,-0.062391442874343284,-0.1923052061858499,-0.026686871015257907,-0.00330594909806219,0.0035471895010555747,5.689144743512307e-06
7.77,-0.06205956617932884,-0.19339745420232646,0.032766391502292436,-0.00179705514566877,-0.0027882155863348307,4.007881954379216e-05
7.78,-0.06098620417560596,-0.1929879967033088,0.01304004861424346,-0.001416566710868881,-0.004445291525003309,4.2419181656323686e-05
7.79,-0.06123542576119689,-0.19235194008260237,-0.0028093830639619455,-0.0007989122171931025,-0.007182771269209602,5.5658185929597064e-05
7.8,-0.06088095314993325,-0.19192122686639834,-0.015804917827821896,-0.00026581302620051794,-0.009620880360783799,6.521338830040339e-05
7.81,-0.060378148845074975,-0.19156968106059935,-0.026690264247619666,-0.0032428954434506833,0.0035920803032665673,5.378636412664397e-06
7.82,-0.0600378325898987,-0.19265580927907422,0.03276165675636378,-0.0017811196815391746,-0.0027472023790807553,3.951372187210976e-05
7.83,-0.05897220535899805,-0.1922444542756807,0.013035667754124347,-0.0014129505446662091,-0.004405137980590591,4.183946155145666e-05
7.84,-0.059229087838730266,-0.19161578748594366,-0.002813382788957597,-0.0008155292894920983,-0.00714394338691759,5.4982166215305676e-05
7.85,-0.05888129674502807,-0.1911876152860259,-0.015808586670829072,-0.00030037320945536326,-0.009583065546763917,6.446888724163106e-05
7.86,-0.05838464838703317,-0.19083724260404722,-0.026693634049834714,-0.003180406763660925,0.0036365103365343498,5.07717400865905e-06
7.87,-0.05803603412957159,-0.19191725643352697,0.03275694133719753,-0.0017655340556542553,-0.0027062552339427205,3.896191845014397e-05
7.88,-0.05697813680427544,-0.19150399126921513,0.0130313127666426,-0.0014096399829380047,-0.004364950266635364,4.1273136491880125e-05
7.89,-0.057242602604645754,-0.19088265395872384,-0.002817350273076613,-0.0008323679676132649,-0.00710491581398252,5.432105916983163e-05
7.9,-0.056901460041558494,-0.19045698448572068,-0.015812217899480174,-0.0003350816016861526,-0.009544905780793072,6.374033657621165e-05
7.91,-0.056410948729990196,-0.19010775169192584,-0.02669696144153022,-0.00311856830812418,0.0036804761479117005,4.783881717708961e-06
7.92,-0.0560541768201972,-0.1911816473043615,0.03275226560184308,-0.0017503794704422891,-0.002665382590403726,3.8422469416777956e-05
7.93,-0.055004003112202327,-0.19076645151550053,0.013027003129550963,-0.0014067137796796893,-0.004324737985507,4.071927300527403e-05
7.94,-0.05527597426890907,-0.1901523751701717,-0.0028212670333260803,-0.000849504182895007,-0.007065700197591071,5.367391349571501e-05
7.95,-0.05494144645012966,-0.18972916238979565,-0.015815793892315355,-0.0003700114198958848,-0.009506414510759186,6.30267742410618e-05
7.96,-0.05445705228979136,-0.18938102874344054,-0.026700229636134054,-0.0030574558707811483,0.0037239752409911654,4.497965854949569e-06
7.97,-0.05409226202957029,-0.1904487937576249,0.032747647722430884,-0.001735727872576199,-0.0026245919472531578,3.789450872123895e-05
7.98,-0.05304980417619731,-0.19003164005937379,0.01302275610015613,-0.0014042415509920637,-0.00428450981511589,4.017701039532021e-05
7.99,-0.05332920260059382,-0.18942474901528783,-0.0028251167005777233,-0.0008670048636107465,-0.007026307276011204,5.303984715715622e-05
8.0,-0.053001254887163896,-0.18900394011645005,-0.015819299132857623,-0.00040522700661684686,-0.00946760429080677,6.232730485176227e-05
8.01,-0.05252295721902556,-0.18865685825097955,-0.026703423889884448,-0.002997136248588239,0.0037670059896072732,4.218709930720174e-06
8.02,-0.05215028670235711,-0.18971847243420825,0.032743103792753914,-0.0017216424056456935,-0.002583889946127616,3.737724005643907e-05
8.03,-0.05111553587511253,-0.18929932760869406,0.013018586892954431,-0.0014022842258437813,-0.004244273591134529,3.964555673865967e-05
8.04,-0.05140228317657147,-0.18869954004685496,-0.0028288849396318483,-0.0008849283832029649,-0.006986746959200272,5.241804371541062e-05
8.05,-0.05108088036109848,-0.1882810763298437,-0.015822720049740724,-0.0004407842759901685,-0.009428486860432985,6.164109628062627e-05
8.06,-0.05060865769124234,-0.18793499316771545,-0.026706531359721453,-0.002937667695685612,0.0038095675557682594,3.9454698376001715e-06
8.07,-0.050228244052874516,-0.18899042903974816,0.032738647899321904,-0.001708177858506956,-0.002543282450899213,3.6869932877872704e-05
8.08,-0.049201190215342194,-0.1885692549219442,0.013014508795095026,-0.0014008944923335873,-0.004204036385102515,3.91241849668451e-05
8.09,-0.04949520798547269,-0.18797648368540365,-0.002832559262699874,-0.0009033250038724959,-0.006947028405327653,5.1807748736482334e-05
8.1,-0.04918031425660274,-0.18756030138789015,-0.015826044927891303,-0.00047673115503437985,-0.009389073219541673,6.096737629848083e-05
8.11,-0.04871414443385902,-0.18721515901987118,-0.026709541032232664,-0.002879100372126596,0.003851659811790741,3.677669168684337e-06
8.12,-0.04832612386707069,-0.1882643825279473,0.03273429229899705,-0.0016953811082201548,-0.0025027746229551026,3.637191851805125e-05
8.13,-0.04730675584596611,-0.18784113674286118,0.013010533317370232,-0.0014001172383878839,-0.0041638045784507475,3.8612229042845e-05
8.14,-0.0476079657119044,-0.18725529022489695,-0.002836128993877196,-0.000922237314468376,-0.006907160093265013,5.1208266280571515e-05
8.15,-0.04729954477866727,-0.18684132138346854,-0.015829263730893217,-0.0005131080190642536,-0.009349373699496557,6.0305429289203624e-05
8.16,-0.04683940501237771,-0.1864970577969416,-0.026712443563781108,-0.002821476786136297,0.0038932832665524806,3.414794676064419e-06
8.17,-0.046443912751215066,-0.18754002889309618,0.0327300475255754,-0.001683291556559877,-0.0024623709924448027,3.588258640518956e-05
8.18,-0.045432218467311714,-0.18711466572618463,0.013006670238624451,-0.0013999899858871435,-0.0041235839325184185,3.81090802406292e-05
8.19,-0.04574054209172118,-0.1865356486163705,-0.0028395850293350122,-0.0009417006616954714,-0.00686714989110967,5.061895548146388e-05
8.2,-0.04543855720129386,-0.18612382181260045,-0.015832368092105753,-0.0005499481202956239,-0.009309398030246996,5.965459304500604e-05
8.21,-0.0449844241501296,-0.18578037168204276,-0.026715231147278473,-0.002764832228973822,0.003934438995814036,3.156391877308342e-06
8.22,-0.044581594611514674,-0.18681704492706785,0.032725922487486514,-0.0016719415591814391,-0.002422075525542719,3.540138039347912e-05
8.23,-0.04357756104411692,-0.18638951600813414,0.013002927810035203,-0.0014005433173286054,-0.004083379654626777,3.7614183535066474e-05
8.24,-0.04389292019624236,-0.18581723006505513,-0.002842919855083892,-0.000961743573759202,-0.006827005120804447,5.0039227222898564e-05
8.25,-0.04359733425829404,-0.18540747114492717,-0.0158353510482101,-0.0005872780087734506,-0.009269155403586658,5.90142556493933e-05
8.26,-0.043149184101309856,-0.1850647664802807,-0.026717897441130845,-0.002709195201566565,0.00397512857651415,2.9020608160603044e-06
8.27,-0.04273915083174984,-0.18609509162104132,0.03272192460102019,-0.0016613568466225166,-0.0023818916878278794,3.492779521128964e-05
8.28,-0.04174276407198363,-0.18566534668806867,0.012999312817285613,-0.0014018012942144365,-0.004043196460297899,3.712703410823324e-05
8.29,-0.042065080698705515,-0.18509969137880944,-0.0028461273249291708,-0.0009823881756530336,-0.006786732618949589,4.946854091791719e-05
8.3,-0.04177585635645187,-0.18469192410108803,-0.015838207074736488,-0.0006251179448395831,-0.009228654532644723,5.838385245356584e-05
8.31,-0.0413336647930862,-0.18434989495830223,-0.026720437409366582,-0.0026545878321479945,0.004015354024960421,2.6514519820221207e-06
8.32,-0.040916560575254834,-0.1853738174695252,0.03271805990578969,-0.0016515569363847748,-0.0023418225038462116,3.446137303239012e-05
8.33,-0.0399278058793584,-0.18494180491934742,0.012995830678264042,-0.0014037818664300217,-0.004003038631690669,3.664717397712134e-05
8.34,-0.04025700224730144,-0.18438267814779863,-0.0028492025982984615,-0.0010036505953647306,-0.006746338793873282,4.890640139610568e-05
8.35,-0.03997410173539606,-0.18397682481463562,-0.015840931855137796,-0.0006634823024347735,-0.009187903707679294,5.7762863151252154e-05
8.36,-0.03953784418087025,-0.18363539989074695,-0.026722847268345618,-0.00260102628424176,0.00405511773883005,2.4042623941313856e-06
8.37,-0.03911380094479,-0.18465286149016436,0.032714333153549546,-0.001642555535441121,-0.0023018706129571825,3.400170017439057e-05
8.38,-0.03813266285845884,-0.18421852905348146,0.012992485611817983,-0.0014064972719667315,-0.003962910072356723,3.617418874681128e-05
8.39,-0.03846866141188343,-0.18366582767548323,-0.002852142060305596,-0.0010255413603758564,-0.006705829679070194,4.8352355902735946e-05
8.4,-0.038192046893925635,-0.18326180974526096,-0.01584352224526242,-0.0007023799626222548,-0.009146910848270073,5.715080895582794e-05
8.41,-0.03776169828384468,-0.18292091690241818,-0.026725124318005555,-0.002548521154384336,0.00409442244286189,2.160231849845393e-06
8.42,-0.03733084726675884,-0.1839318561103198,0.0327107479236588,-0.0016343609325751656,-0.0022620383215591648,3.3548403927576586e-05
8.43,-0.03635730962514572,-0.18349515134019612,0.0129892806732812,-0.0014099544264141472,-0.003922814358410814,3.5707704492097514e-05
8.44,-0.036700033128056475,-0.1829487717941447,-0.002854943152996725,-0.0010480657838829273,-0.00666521098309557,4.7805991213029855e-05
8.45,-0.03642966648342849,-0.18254651036109237,-0.015845976184536426,-0.0007418146967738442,-0.009105683552019211,5.654724988296053e-05
8.46,-0.03600520150470743,-0.18220607723051785,-0.026727266906334535,-0.00249707785906809,0.0041332711381713415,1.919139342380997e-06
8.47,-0.035567673233316555,-0.18321042977831326,0.03270730672966238,-0.0016269763800394093,-0.00222232765178762,3.3101149516393265e-05
8.48,-0.03460171910774079,-0.18277130062749336,0.012986217896582275,-0.0014141553017165225,-0.0038827547862094617,3.5247384769918106e-05
8.49,-0.03495109071494085,-0.18223113937843038,-0.002857604322059615,-0.0010712243402553247,-0.006624488136012579,4.726693086363753e-05
8.5,-0.03468693369867992,-0.18183055574105822,-0.01584829252720965,-0.0007817855389459687,-0.009064229139836021,5.595178214101743e-05
8.51,-0.03426832671848956,-0.1814905101227282,-0.02672927430502625,-0.0024466970104640145,0.004171667055052368,1.6807996468257833e-06
8.52,-0.03382425100895148,-0.18248820950361733,0.03270401108146359,-0.0016204004640929831,-0.0021827403867975903,3.265963719508032e-05
8.53,-0.03286586281348036,-0.1820466047330882,0.012983298374180663,-0.001419097293770687,-0.0038427344166483846,3.479292776379071e-05
8.54,-0.03322180605280778,-0.18151255880560768,-0.002860124945769371,-0.0010950130293113686,-0.006583666332506591,4.673483250310542e-05
8.55,-0.032963820260079046,-0.18111357486638724,-0.01585047102459214,-0.0008222871470402906,-0.00902255469793736,5.5364035630931854e-05
8.56,-0.032551045414663804,-0.18077384525305717,-0.026731146602898548,-0.0023973747805176434,0.004209613609173345,1.4450600752377978e-06
8.57,-0.0321005513725936,-0.18176482308618347,0.03270086163631447,-0.0016146274640306242,-0.002143278112735238,3.2223599478209525e-05
8.58,-0.031149710935096664,-0.181320692735909,0.01298052232812097,-0.0014247735784841333,-0.0038027561161859316,3.4344063561094656e-05
8.59,-0.031512149671897305,-0.18079266011383766,-0.0028625051751163255,-0.0011194237290481788,-0.006542750571768443,4.6209385361955526e-05
8.6,-0.031260296609048055,-0.18039519882329103,-0.015852512200709157,-0.0008633101523936547,-0.008980667116655915,5.478367155648128e-05
8.61,-0.030853327750435255,-0.18005571477353044,-0.026732884643720922,-0.0023491032531266654,0.004247114361042952,1.2117974000369432e-06
8.62,-0.030396543824195987,-0.1810399012658337,0.03269785820769755,-0.0016096476993993135,-0.002103942257515705,3.179279850610817e-05
8.63,-0.02945323236858144,-0.18059319703667143,0.012977889234377926,-0.0014311734560028145,-0.0037628225947098633,3.390055156308092e-05
8.64,-0.029822090858999672,-0.18007107707163073,-0.0028647459426878186,-0.0011444445365378611,-0.0065017456942633,4.5690307842780115e-05
8.65,-0.02957633196132292,-0.17967506281024725,-0.01585441729012871,-0.0009048414975204442,-0.00893857312617248,5.4210380145216024e-05
8.66,-0.029175142728377068,-0.1793357553392383,-0.026734489955160257,-0.0023018707641049587,0.004284172978652141,9.80914944284921e-07
8.67,-0.028712196691316194,-0.1803130796673713,0.03269499991631619,-0.0016054478651300324,-0.0020647341265034357,3.1367023544562275e-05
8.68,-0.02777639478424021,-0.17986375524969844,0.01297539785838353,-0.0014382826828453113,-0.003722936440341924,3.34621780269852e-05
8.69,-0.028151597799563888,-0.17934744903413957,-0.002866848776150732,-0.001170060096742354,-0.006460656415483597,4.517734522974334e-05
8.7,-0.027911894342480537,-0.17895280795876545,-0.015856188140261906,-0.0009468647617707683,-0.00889627932927905,5.364387847991089e-05
8.71,-0.027516458214194017,-0.17861360986692887,-0.02673596465108119,-0.0022556622287682668,0.004320793203148786,7.523398368302148e-07
8.72,-0.02704747711135269,-0.179584000568056,0.03269228522562173,-0.0016020113544042232,-0.0020256549352308363,3.0946088617625185e-05
8.73,-0.02611916485761867,-0.17913201198815898,0.012973046379372022,-0.001446083791771329,-0.0036831001513146174,3.302875373903112e-05
8.74,-0.026500637471116306,-0.17862142263957992,-0.002868815860423979,-0.001196251919077877,-0.0064194873568200785,4.467026751675547e-05
8.75,-0.026266950747810824,-0.17822808302092596,-0.0158578271403087,-0.000989360474742506,-0.008853792231295666,5.3083908439777037e-05
8.76,-0.02587724095448607,-0.17788892919590182,-0.02673731135161006,-0.002210459456950412,0.004356978817449246,5.26020429692607e-07
8.77,-0.02540235122694412,-0.17885231450520678,0.03268971202174953,-0.0015993185690848933,-0.001986705839255627,3.052983027186413e-05
8.78,-0.02448150807410343,-0.17839762042726193,0.012970832399261667,-0.0014545563992235395,-0.003643316165027639,3.260011181667432e-05
8.79,-0.02486917587418702,-0.17789265340795168,-0.0028706497978703283,-0.0012229986815788017,-0.006378243073650968,4.4168867352791845e-05
8.8,-0.02464146707126247,-0.17750054586151975,-0.01585933719461252,-0.0010323064173064411,-0.00881111826724898,5.2530234750228696e-05
8.81,-0.024257456647802655,-0.17716137358014805,-0.026738533165371337,-0.0021662414553752906,0.004392733617655133,3.0192387462896306e-07
8.82,-0.02377678407938788,-0.178117681794987,0.032687277702336814,-0.001597347217627258,-0.0019478879612830043,3.0118105469810984e-05
8.83,-0.02286338894208484,-0.17766024369869626,0.012968753084763307,-0.0014636775002675627,-0.00360358688439712,3.217610563782532e-05
8.84,-0.023257177907964888,-0.17716080709107018,-0.002872353732641386,-0.0012502765225912119,-0.0063369280807699345,4.36729581026058e-05
8.85,-0.023035408212024322,-0.17676986487025204,-0.015860721598315308,-0.0010756779101816361,-0.008768263826427893,5.198264313957214e-05
8.86,-0.022657069997933377,-0.1764306140383809,-0.026739633556260856,-0.002122984717319784,0.0044280613871620755,8.00338551802958e-08
8.87,-0.02217073966193084,-0.17737977378473602,0.032684979212049825,-0.001596072600411196,-0.0019092024156651425,2.9710789610114274e-05
8.88,-0.021264770957429846,-0.17691955625842581,0.012966805149616789,-0.0014734217509746773,-0.0035639147016222335,3.175660689457145e-05
8.89,-0.021664607530169633,-0.17642556096042483,-0.002873931119751205,-0.00127805931994985,-0.006295546875273578,4.318237202056787e-05
8.9,-0.021448737985707567,-0.17603572017854674,-0.01586198401071215,-0.0011194480900231756,-0.008725235274440352,5.1440938600750516e-05
8.91,-0.0210760446606173,-0.17569633349090452,-0.02674061636120939,-0.002080663499559733,0.004462965873339591,-1.3965152964400375e-07
8.92,-0.020584181026350734,-0.17663827408753718,0.03268281312251986,-0.0015954678824873134,-0.0018706503303965389,2.930777467138395e-05
8.93,-0.01968561653242773,-0.1761752449880305,0.01296498498781773,-0.0014837617382509182,-0.0035243020194825423,3.13415037684548e-05
8.94,-0.020091427597179745,-0.17568660493516575,-0.0028753857961305584,-0.0013063189576439443,-0.006254103957018397,4.2696958535107914e-05
8.95,-0.01988141926645426,-0.17529780470759704,-0.015863128393078796,-0.0011635881730324214,-0.008682038972873875,5.090494375573324e-05
8.96,-0.019514343332360795,-0.17495822793200944,-0.026741485674719456,-0.00203925008661642,0.004497450766672217,-3.5712173448849385e-07
8.97,-0.01901707008755693,-0.17589287961250477,0.032680775676752205,-0.001595504353758592,-0.0018322328667174162,2.890896747652918e-05
8.98,-0.018125887155662213,-0.17542701020722973,0.01296328864697216,-0.0014946682371387088,-0.003484751270271585,3.093069922402585e-05
8.99,-0.01853760000614102,-0.17494364253245465,-0.002876721820754824,-0.0013350255800073214,-0.006212603846758585,4.2216582640890806e-05
