timestamp, accel_x, accel_y, accel_z, gyro_x, gyro_y, gyro_z
0.01,0,0,0,-0.0059144239881924595,0.011344547400826294,0.015160106270313847
0.02,0,0,0,0.007684895215190755,0.005504988953295766,-0.011558573298474926
0.03,-0.004066067995864559,0.006770056522024618,-0.011382974998294453,-0.01024202267434523,0.006258856030346694,0.01030785225902337
0.04,-0.012551618734663681,0.017509294779296435,0.004466129611811103,0.012249477849806513,0.004166636627098008,-0.004984280768363071
0.05,-0.008138371700810563,-0.0017510083538714353,0.006046429742496386,-0.0062128146506118176,0.013864311686509952,-0.0007354826917799198
0.06,-0.0030625528966405895,0.005950349478218039,-0.016299400649985345,-0.0005135735252855393,0.007171257841388034,0.004162887656939639
0.07,-0.0007871270453776659,-0.003979847341818548,-0.012304051929969867,0.00969113432267159,-0.02706044448632685,0.004061025207461624
0.08,-0.004307959891126589,-0.007156099452112832,-0.024645637064358114,-0.0027375427256338698,0.0017029465050634636,0.0009729042392679806
0.09,-0.0025460232526237315,-0.016497130687332186,0.01138976711460976,-0.009034788382899017,-0.03411987321188677,-0.0012049943752717733
0.1,-0.00552130190728152,0.001963133307962971,-0.005919390100710837,0.017770419779616922,-0.004000802639902991,0.0058055283531455275
0.11,-0.024495826455728176,0.008823273262238763,0.023795039408243006,0.01207717505131576,-0.0281176785193938,0.006768424777234319
0.12,0.007154539364038964,0.007984277509255094,-0.37842679448292316,0.0061772493944856404,-0.030347905602538444,0.014984702094398495
0.13,-0.004931282010568789,-0.002465007979541891,0.0207136006990396,-0.009639289822481405,-0.03478461689806194,0.0013873517778318824
0.14,0.008871681903278666,0.0038384699401006776,0.02704984711574497,0.008185765702350752,-0.04418470721392316,0.004832505448522386
0.15,0.014090966945410375,0.0037565827578659216,0.024422446192542427,0.011880732309523887,-0.027650809763979142,0.01643190764699044
0.16,0.016360986286552304,-0.007448347505201504,0.013956802827794287,0.014131938866851667,-0.04878262014228897,0.004178985626634721
0.17,0.006610628244011758,-0.0019625049743852803,-0.5644081439796802,0.0023804958608408177,-0.051039728516951974,-0.0038931556157850485
0.18,0.016565098218484803,-0.01736871651679156,0.06097295150156559,0.0008594862994587035,-0.05913683770995309,-0.014567289631662865
0.19,0.015815476864632,0.0018898188248162168,0.03885184736448836,0.0031797517776059256,-0.047902138590331524,0.012305155673343234
0.2,0.023603040370146867,-0.006050693706358408,0.020155019937816925,-0.009732068370638003,-0.05815018233702521,-0.003478889349051382
0.21,0.03698105604567523,-0.010195643797387303,0.01600263156150355,0.017022644098822287,-0.06731971474154688,0.004036884145154809
0.22,0.057700939086953354,-0.0038717216209112025,-0.08529304406423256,0.013423000691847027,-0.0658975854398079,0.00641392500853368
0.23,0.04919761840514768,-0.0009422813221007485,0.04066221387702447,-0.013044949851616127,-0.07368293790602086,-0.0031918943314166353
0.24,0.03738355713793273,0.007300611168349291,0.03593596212218562,0.003182475712081666,-0.06601095910837934,0.02573297652270238
0.25,0.07529076612509683,-0.010628524331622357,0.02296179161630195,-0.0016601211673720234,-0.08649524518570226,-0.003753862031363747
0.26,0.059313361247390735,-0.030752762745290717,0.03312556567547078,0.01728470780405218,-0.09156188481639448,-0.010595809284701396
0.27,0.06896951890843804,-0.021605633335782082,0.009732596552424037,0.018350107123136547,-0.08976910074080895,0.008152037220409435
0.28,0.05720063830806281,-0.013904636989136687,-0.3239310266732345,0.024690239427821878,-0.09203985339732801,0.007797727739480198
0.29,0.09357483111976307,-0.008697086870022108,0.055957472648805004,0.020256623458117698,-0.07336932492559248,0.02499112894128943
0.3,0.09156264809557811,-0.026739259120115776,0.14926461663924964,0.028057471282826894,-0.07507183263231847,0.008241017199608482
0.31,0.10265933791160683,-0.022561685631072723,-0.40027363667497656,0.01698908094042626,-0.08302185359210708,0.008451579547101126
0.32,0.13758145452302786,-0.030762771589672448,-0.187484377425534,0.0032805604115933996,-0.09182923198969435,0.009448294460159113
0.33,0.11677256928122777,-0.01921167041781892,0.0882050499291217,0.001213691744158741,-0.10165698807952932,0.007675051907832846
0.34,0.12361414654198533,-0.020387888141706195,0.07162830417397445,0.009811912500672842,-0.0729838891732261,-0.008474942609911308
0.35,0.12518451291500893,-0.025608510464634304,0.050149434674579094,-0.0018547524563395272,-0.06972397801389933,0.007924364833026748
0.36,0.13757023087308615,-0.024167822339511702,0.1374785885797711,0.013971318623564918,-0.09079483699218865,-0.008306166459505444
0.37,0.1483524579332302,-0.027368490238104545,0.047480426623953756,0.0029742897848289403,-0.08953500380540447,0.00011966857467672273
0.38,0.14488716334033352,-0.0404178395773179,0.0347702049932021,0.007881976818200718,-0.09114185815213044,-0.01851092049481729
0.39,0.19165063569257018,-0.007175644537654777,0.04798114117121999,-0.008214294751601889,-0.09390667420836299,0.01699136975266142
0.4,0.18712295631262554,-0.01526803670947504,0.017095083590466537,0.01572273595308265,-0.08853553841589977,0.009209132205042153
0.41,0.1936799428566781,-0.017200388543075585,0.005295098455112786,-0.008194177288847262,-0.10939937378342011,0.005422447669841929
0.42,0.18248314626494416,-0.022320924739032928,-0.6254400700243896,0.001393927667262939,-0.10743277957352845,0.004360606679487662
0.43,0.2212259894763712,-0.020153351709134525,0.08568406420946176,-0.011354838425180947,-0.09208091422702105,-0.0005450517817881693
0.44,0.22411299616653202,-0.016195348171101256,0.06221460372233068,0.0028303469043412252,-0.10789042534969988,0.011175864012256094
0.45,0.22796071079619498,-0.016916099992886846,0.06871852009630798,0.010050801340139952,-0.08754845253529533,0.004943131239742236
0.46,0.2255597581798062,-0.01458595703313337,0.18915311034442803,0.0048015322057610825,-0.11893470500616042,-0.0017446658203108226
0.47,0.24327002317100666,-0.013498246837108702,-0.13998076791326658,0.0038914145368926876,-0.09335324381414506,0.0018112767820863901
0.48,0.26048096207031884,-0.0036660767839492778,0.07054546854153124,-0.01404476970043692,-0.10233765568272835,-0.00812085012303039
0.49,0.2642918755031474,-0.018989422996880112,0.04611219676996278,-0.016864108076868747,-0.10154581077726217,0.00038587846231324073
0.5,0.2768698550889574,-0.03337418061151776,0.05434535295264557,-0.019856556029211367,-0.08081798696007392,0.014470559677625425
0.51,0.2951708427014284,-0.02330487816467026,0.03750560226708475,-0.006454957666530107,-0.08414720383066705,0.009707010124334236
0.52,0.3021731436559423,0.0037363711066343355,0.7535791047910293,-0.02053972240793233,-0.09806125900883812,-0.003944163441574195
0.53,0.30386319632205694,-0.021590363855997635,0.014037694735729874,0.0040358127867524095,-0.08828935346095274,0.010033075565337312
0.54,0.3234859317417126,-0.023835638933598226,0.015254071573672794,-0.013983981971272201,-0.09924664092283718,-0.002599959780550731
0.55,0.333285340521216,0.007559778277530231,-0.08197585445176739,0.005113294085538459,-0.07966155558287358,-0.003978425240729194
0.56,0.3365137333815884,0.005876710981525091,0.02810819481037967,0.003484943093599842,-0.0966045083575621,0.003619520626533842
0.57,0.3510407566049613,-0.027091704431108303,0.417586085612871,-0.016945140646490133,-0.11141594811611186,-0.011054346474156049
0.58,0.36493880699272896,-0.007688729327591225,-0.00973263736416753,-0.011873917047699838,-0.09528059453046402,0.008472743701627327
0.59,0.35360369295061844,-0.011636096452701868,0.009903911165747388,-0.017251805135389712,-0.09329866082393257,0.015168867694524928
0.6,0.3709387622631322,-0.007310013916177263,-0.02959500241163121,-0.016314749435112047,-0.08707871314290852,-0.010545656416431879
0.61,0.37730694155232986,-0.019126297317772628,0.010452131898070005,-0.006886542449791232,-0.09354139383010852,0.0037281958489394987
0.62,0.4040457040239669,0.0025097012126007526,-0.0011329028310830807,-0.01023608894244143,-0.08754667369884714,0.004052732759044838
0.63,0.39852169355137895,-0.008068051476965958,0.006408666512767558,-0.026445835197765742,-0.09804022232826179,-0.000960482451682815
0.64,0.3962215143937111,-0.015982518428287594,0.0029322066845162194,-0.0029543833297030874,-0.09002221370451996,-0.013398548189210614
0.65,0.3996725409742675,-0.007433838356351271,0.00848500866499841,-0.00646438761470833,-0.08058808758016944,0.0056195017773731995
0.66,0.4387296036988284,-0.002377392386064896,0.012059317391063248,-0.013574014600010058,-0.09555467199465179,0.00729910503555537
0.67,0.43733471510580413,-0.015672154366883653,0.0033336262672225775,-0.013366319166564498,-0.09590021135055812,0.0059790055096452886
0.68,0.4450794465900168,-0.001563803053593731,-0.0006206953323900938,-0.016844935510888115,-0.09155150630772159,-0.005101252611589772
0.69,0.4596456519664671,0.0007272674800304349,0.009013568967674331,-0.016067654029019128,-0.078546842667018,-0.011171050961092045
0.7,0.4457128351188157,-0.004540344593602799,-0.0008305960731406457,-0.008920959078141145,-0.09083231501793577,0.014465518552924925
0.71,0.4723743969851066,-0.0017972813581611877,0.0051504586807614655,-0.025149084304897047,-0.08669777512644061,0.007644380359501627
0.72,0.46553153788821594,-0.009478314798335661,-0.510662281561379,-0.0003660821863155639,-0.11072301971157422,-0.006013342605508849
0.73,0.5072617916126141,0.01318680427171523,0.082697140156653,-0.020493195246281286,-0.0824488887859872,-0.002824413093739655
0.74,0.4644536630889997,-0.00926985204036336,-0.5083586901425122,-0.005735744608073794,-0.06894141908137194,-0.006494649092873705
0.75,0.4937280770134478,0.026746397067878184,0.06878892100336682,-0.03646247209301648,-0.07882075216205507,-0.006221306135869393
0.76,0.5074200107615513,-0.003466440848517596,0.049752440283603754,-0.008425995619122523,-0.10272164547184688,0.0018244422220564925
0.77,0.5068979438977872,0.003957275427764454,-0.35693053468896024,-0.027556827150877365,-0.10213585414293487,-0.018896079841355336
0.78,0.48623295630684804,0.011821903492002406,0.041479164177577674,-0.008561995694995276,-0.07144539984014303,-0.008220316016451354
0.79,0.5768484854156508,0.013716045843734518,0.4772733614577464,-0.01614057277360901,-0.10188172662657666,0.0077600545500969885
0.8,0.5610100386677832,0.020037893473819547,0.013688311038688897,-0.019165876778107986,-0.0844128707893303,-0.004086162042036752
0.81,0.5573135957779893,0.007571199563554118,0.038705722440288554,-0.015308485833136746,-0.10459343408255184,0.010254976137633542
0.82,0.5687488070271256,0.007194602623638179,0.024466543865293913,-0.024479707635824854,-0.10523736254031328,-0.004696991356830405
0.83,0.5560035435432287,0.02433108517532779,0.028380534168374674,-0.02631698711971241,-0.0999107573505574,-0.018234596907687983
0.84,0.6045327182895577,0.019794315266352596,0.0007764318591696358,-0.03035023832680306,-0.07602069560996408,-0.004771287572104639
0.85,0.6027074008538009,0.007965409575886864,0.3689863759341885,-0.014717374638932586,-0.08050546564756639,-0.008268376484827589
0.86,0.6239342105177775,0.027797797259104078,-0.0031653987462092175,-0.02919629589066551,-0.10113747763270041,-0.016893936918571714
0.87,0.6273407503489038,0.04529838104821895,-0.0031879262187724574,-0.00926618899368364,-0.07907410919084078,0.006185523479249683
0.88,0.6064430112452364,0.029088400692642704,-0.010394660931029786,-0.03366855906809337,-0.0950701905158085,-0.0016077109822971664
0.89,0.6206687301393022,0.031045272447445527,-0.029981586904427125,-0.03391750730742232,-0.07723265970979015,0.00010989287921710873
0.9,0.620940022696568,0.029921657516705107,-0.009604218286700167,-0.01238400518591131,-0.08555010557018053,-0.004615756623293607
0.91,0.6462485263536447,0.03437990881422319,0.00530911706300329,-0.022027179587021405,-0.09319802152379217,0.004281623740126885
0.92,0.6463321784558637,0.038536470651174166,0.012069299755805488,-0.01989887995523766,-0.08213466837636162,0.0010863693731474767
0.93,0.676054042241026,0.02973835773603065,0.008557822733841102,-0.014942534549094699,-0.07838837710877812,-0.011718070648964265
0.94,0.6811762147852805,0.04717646006177229,-0.00526333346689613,-0.004627373213238178,-0.07875726057703007,-0.0007846460559230912
0.95,0.6616876734714341,0.03288668355100881,0.0006827786185462641,-0.002842024898687177,-0.07530102570519849,0.01884597198342013
0.96,0.685890069870792,0.06741376965680729,0.012938931827242739,-0.016303066395323706,-0.10361661299046898,0.008225355045235031
0.97,0.6073879448590668,0.050708258521935765,-0.9945816183491557,0.002060464793626919,-0.09090125985024407,0.004646012598689603
0.98,0.7033242129147759,0.03224824619773143,0.05873839505341931,-0.005548093861268567,-0.07114653748098512,-0.01479461931166801
0.99,0.7142257896331412,0.03429044263521375,0.042563669921511185,-0.02458478893095729,-0.06462296516736786,0.008042646330698119
1.0,0.7164893291298611,0.041697671280969954,0.032464060929318556,0.00010213254586599087,-0.06840383777423224,-0.008260595467211546
1.01,0.7080921095379391,0.054392431316771045,0.02937386193437171,0.012165248800767922,-0.08382135171948035,0.01133312679995254
1.02,0.7720448723710269,0.050821519594874846,0.6020734645980566,-0.013012352000293756,-0.06357849985723737,-0.013532013269317113
1.03,0.7456838564065617,0.054601353493537674,0.021119117206237742,0.000593113936859126,-0.07536533634595856,0.004868968131518279
1.04,0.749092129362607,0.026529590669240675,0.0030941618124282703,-0.007914223888320887,-0.06430639551896085,0.0082386653058623
1.05,0.7286868687145721,0.04319113091645742,-0.0020744417492371526,-0.01226307423152328,-0.06782530562687104,-0.020254341235095518
1.06,0.7778274331206002,0.05992925076502023,-0.0033751847195821307,-0.011259942682619428,-0.08415999950460902,0.005811998802419865
1.07,0.7720593938774574,0.055238386763770436,-0.0029688993909305016,-0.020670286762171246,-0.08342352274582335,0.0007046792468487235
1.08,0.7770394195216578,0.032879311157830216,-0.013321612390974055,-0.0023144503729420037,-0.07789095822983307,0.0024858674127625924
1.09,0.7696158415889726,0.047803452581150825,-0.014895749356515837,0.004308190372142879,-0.05337275633126884,-0.01097506026257054
1.1,0.7900416359940913,0.06451131322449807,0.0011799391632542986,-0.007463449531768926,-0.051848190387766516,-0.002629305250470314
1.11,0.7922581257294536,0.075985688957972,-0.007935964134399115,-0.011215888675405133,-0.06407215091826597,0.0048061313295215315
1.12,0.7927884260007105,0.05295823770676469,-0.0240959408494376,-0.0015695184448289018,-0.06931054709723893,0.005180613437563137
1.13,0.8044297490605099,0.052010497977287316,-0.02630146550259534,-0.008671192338411793,-0.06758962097698516,-0.0053936447190678135
1.14,0.806705124478039,0.055888453182362505,-0.020062597020435745,-0.01580634171027827,-0.044449697873039797,-0.0023098142390993535
1.15,0.8294861548300845,0.042758332481515934,-0.018923308743595102,-0.012438935273407732,-0.03631755654647982,0.009292911090238729
1.16,0.8176358579254354,0.07761413973855233,0.007695034609437639,-0.019864439134255375,-0.046557677984703866,0.002355570903101226
1.17,0.8135960607232466,0.05808629105076846,-0.020259027824163812,-0.02260151165130951,-0.047159016608617085,0.016874904455431355
1.18,0.8250276892413047,0.07005907779088609,-0.03229170134539505,-0.001611712591824327,-0.04916718149291496,0.006405146608099014
1.19,0.8404669670060431,0.04754675101918201,-0.0010090428881509954,-0.011126226666983548,-0.06120849163017597,-0.0002607280536555856
1.2,0.8494268112449009,0.06443440409681547,-0.01674658245898597,-0.011912266415273048,-0.01839437937216647,0.004321183213888375
1.21,0.857118159975692,0.04359534270592162,-0.005540542152987604,-0.00571714473660696,-0.04254587100143784,0.015687711608365337
1.22,0.8681290050706286,0.055753401609837494,-0.00878322337232058,-0.0023820943236535237,-0.04289432111524613,-0.0017478486371706324
1.23,0.8638625667326172,0.05836053145974353,-0.024609843939489624,0.0006153187848731336,-0.04167229840086629,0.0011469950136495772
1.24,0.8450249135658515,0.04843761909815043,-0.007904665649927808,-0.014297457477591521,-0.04319018395264092,-0.007888070023203813
1.25,0.8593642405317647,0.0665172204216588,0.0027461814517274717,-0.01239543083944901,-0.02165354609683594,0.008119231660048644
1.26,0.8728629009936812,0.08270687154054271,-0.009520937332261087,-0.0034619600237718474,-0.029549526826040187,-0.012769331677481417
1.27,0.8680351474566415,0.0850557914412466,-0.024296008882170633,-0.018981818847414223,-0.04626147680232481,0.009681553890419876
1.28,0.9058500379188783,0.07579949582335876,0.4471936569099466,-0.014336610258718074,-0.04637801356515935,0.0027519687434038025
1.29,0.8978192526594002,0.07222924342198607,-0.06686729966216137,-0.020789304272082483,-0.0207323317195088,-0.026492372834507394
1.3,0.8840747842370059,0.05617096897517747,-0.04344271572519605,-0.023571445247872472,-0.03934537173541772,-0.002692214537741576
1.31,0.8941090431593058,0.08035473860028684,-0.08049992739814736,-0.024393603375044218,-0.05234786984970648,-0.01562560205387769
1.32,0.8902251149017152,0.08887034884488225,-0.03432360667596533,-0.022081793831912278,-0.028784657744401032,-0.00491787636962428
1.33,0.9052869120832702,0.08825538029804796,0.15125066626837122,-0.03333993096595578,-0.024252157903112772,-0.0010958408785571977
1.34,0.9151372666650551,0.09674166708414204,-0.05705957743082823,-0.01666579042371265,-0.02977776645667569,-0.008693926300851657
1.35,0.8877112914233677,0.06959769290834214,-0.03143542257991518,-0.025213076631271914,-0.017422643949195304,0.004826592684887243
1.36,0.901894026343318,0.07899151707912991,-0.025026203429315785,-0.00882622756984464,-0.03727344065166877,0.0029409579188546297
1.37,0.9054152164966969,0.09074793430128116,-0.035685705018435314,-0.028704938750717814,-0.026386800588617036,0.0032465799414207056
1.38,0.9253441428336929,0.08709328975935414,-0.02689729732388059,-0.031375169663600766,-0.039489444452781235,-0.002405211487230324
1.39,0.9192061924365096,0.10714569686626246,-0.04335991688338209,-0.029435419954052272,-0.03223672060235855,0.02122997917324875
1.4,0.9164780808769014,0.10451102296976134,0.001277456479020736,-0.020111585681930916,-0.01872880189708179,0.00561592211344351
1.41,0.8478282614634118,0.08943140474860777,-0.8465757726351997,-0.02533305482696928,-0.03397424547402526,0.002671035577475083
1.42,0.9518981986471828,0.08526906191438934,-0.005280678841241235,-0.03193560088186786,-0.02629712595381128,0.004275066087599015
1.43,0.9188754139544987,0.1013711070341251,0.004372570723264182,-0.013681546395377872,-0.010416537385233224,0.00020965445186031184
1.44,0.92453643061609,0.10233148685838862,-0.020808992261592385,-0.014140808940808255,-0.0299026636588269,0.0004961123813634546
1.45,0.9491013056164179,0.11774395914706168,-0.011516252684479457,-0.005315731186934642,-0.022077189441013258,0.003187474209934608
1.46,0.9349523164574362,0.10525108602989669,-0.007409710876403902,0.008844474803136083,-0.024953991150367526,0.008711698513985604
1.47,0.9557008038590284,0.12885749033400667,-0.014374885774068352,-0.01675181147718347,-0.03533678839706217,-0.0010088273606163477
1.48,0.937540833961017,0.09962764610372946,0.01222670094170833,0.003993440540365814,-0.013312612372319226,0.009045460870187538
1.49,0.9310952162818916,0.1164536811190234,-0.02061230959020812,-0.0032950553706618275,-0.02223301375358941,0.00012144870334929013
1.5,0.9565761277207246,0.11515937942096391,-0.02902034183395765,-0.009565776111707938,0.009910183884375333,-0.007443501395375914
1.51,0.9309622473249092,0.11089886235668024,-0.029884259945599435,-0.016489950715370613,-0.006549268087625072,0.0004623307875473758
1.52,0.9389982857974429,0.10425375241343561,-0.038301756561074256,-0.010106617420845844,-0.0068676762330387164,-0.006047284866857446
1.53,0.9596318501407298,0.11632424890247792,-0.038772614563905114,-0.01986179704992385,-0.01216113267917441,0.00630081632145425
1.54,0.9487073864424214,0.11616916521613414,-0.008163455853366237,0.016154018499617603,-0.016183819010490944,0.01601060604630756
1.55,0.9513920621130606,0.11521341345201144,-0.038021952924635366,0.016707626638434947,-0.0066853618249197114,-0.0037267192241526564
1.56,1.0724223769946988,0.12384319476613434,1.1849420112171989,-0.0017211659730402631,-0.017767266203372236,-0.004524045899253401
1.57,0.9771961418185524,0.12690982504174564,0.27574577797630373,0.0014124672197493218,-0.015022419552987823,0.005450656041632442
1.58,0.9461066744617854,0.0984767818083882,-0.1007994422175934,-0.016247135710258216,-0.0006646324817786969,-0.00956422916495972
1.59,0.9393925568119735,0.10768659541794186,-0.08525985789285165,-0.011479446321214398,-0.024847420836991478,0.0027830391893684573
1.6,0.9459634111258656,0.10636368653071727,-0.07347456539211744,-0.006310536866848748,-0.019226325223989954,0.01820847762925106
1.61,0.9564622177817426,0.1202173499193668,-0.07696718483042032,-0.015286396152481174,-0.006861034675401629,0.023212055785961475
1.62,0.9463794891207609,0.10938362903154943,-0.07018405997902427,-0.012324574886848464,-0.017601999700266737,-0.020449523982715045
1.63,0.9543080156269313,0.10132656428530613,-0.06457097818352527,-0.003185409888424714,0.024649813253616835,0.002072038133640073
1.64,0.9641867818973877,0.1262793969884767,-0.020008699962447585,-0.005560628912871157,0.0043349983416257586,0.001209293289358014
1.65,0.9527167276718124,0.11707733067843441,-0.06462261443945878,-0.012198813570518689,-0.00542580513524148,0.010853899051377815
1.66,0.948275504261567,0.11541470977461081,-0.07953533649919196,-0.01455285490089757,0.014148863032733527,-0.007529935369773596
1.67,0.9462539448687447,0.13376414829028427,-0.06545269010313483,-0.01864304882081405,0.0018918176995038269,0.004108742647826201
1.68,0.9785569160023406,0.14093473163633743,-0.07191621950339147,-0.020885521006113884,0.004801241155034838,-0.014101868369691576
1.69,0.97019196837562,0.12265090038390158,-0.07210825970011889,-0.009608120787927742,0.014813322830253812,0.0025263705586542505
1.7,0.9661153580939411,0.12423826575904914,-0.025315228003708036,-0.015214850386434591,0.021551196057975387,-0.005934245558206187
1.71,0.9509891122730321,0.12746759575673544,-0.06872229290627394,-0.023678869898998922,0.010633610240218635,0.019780948069457027
1.72,0.9653798558589293,0.14198966202487318,-0.06455135163628863,-0.010035705746293144,-0.0037628326232442555,0.005406362303469722
1.73,0.942432563455008,0.13302726555305605,-0.07605076763667855,-0.031883533525225626,0.013611080931299447,0.003889743629444292
1.74,0.9478926629960112,0.11738238735247478,-0.05368548269133449,-0.024647777080099194,0.029503019491758622,-0.0010519077822569861
1.75,0.9279593213874142,0.14978647228027284,-0.05804959981072033,-0.02370179600245169,0.0197151364648985,-0.002645482651852118
1.76,0.9520061143300185,0.12176265422050014,-0.06046915702214871,-0.018628674301236294,-0.00303145757466372,0.0023351413253984393
1.77,0.9476531318154754,0.131569965136005,-0.06567909331960659,-0.011917726599672222,-0.0031438082934456546,-0.0034371105523740243
1.78,0.938760123923456,0.1397363690993334,-0.05543636290536559,-0.019373670580713872,0.013914193207928444,-0.011681054823832419
1.79,0.9341617709669566,0.1450223149355403,-0.07333994256307165,-0.00786656963553893,0.016223578624587964,-0.000278683340086574
1.8,0.9395291137159626,0.12660283205181533,-0.051532316728513494,-0.003958029380330944,0.03788553147605699,-0.005178910253939221
1.81,0.9460985909408777,0.1342597581646648,-0.05505100690443375,-0.022832298813377627,0.005616137290558067,-0.01780137827475516
1.82,0.9642074984176674,0.1586598996624582,0.08673245618172694,-0.010346818636934993,0.029767337558723222,-0.012598340692803542
1.83,0.9748091666626394,0.15888740127412046,0.2919378308371526,-0.013015876029247732,0.019400209831920753,-0.0032297737580742145
1.84,0.9335407240953938,0.14919560321554076,-0.08380216471672455,-0.01458099531395067,0.01621712474143206,0.0023122834228055267
1.85,0.9513975025227582,0.14525737222837645,-0.0683538027875889,-0.022615835692089192,0.03748868336266529,0.0027562591968969515
1.86,0.9221331231368747,0.15984446346684064,-0.05140512549796378,-0.024576057040490644,0.03312627190067879,-0.005743385875860445
1.87,0.9143245403531219,0.14358653134356714,-0.08226595078520786,-0.012644494053776646,0.027447945314914027,-0.003013025907324058
1.88,0.9255534095427989,0.16885408948280392,-0.08020729274808186,-0.004339929458986126,0.03149697241193819,0.0054253509455413195
1.89,0.9349753929960027,0.13698555865197223,-0.0740104578577025,-0.0258387851932196,0.04173612412187481,-0.007670967006913411
1.9,0.9208768284406638,0.14280591372813156,-0.06323576652958796,-0.007959500643449715,0.04124755825093438,0.0030371811263584262
1.91,0.9223645081669558,0.1626377844258738,-0.08358167328904095,-0.015985632773925437,0.02779909301466911,-0.0005969878183181953
1.92,0.935034284016927,0.17646432946870733,-0.07386546970389848,-0.0029819374504371603,0.034402539772292115,-0.0037804036822269675
1.93,0.9257225622026122,0.14864653814726217,-0.057129506514163,-0.02106104712636019,0.0321764729999064,0.00794744138630475
1.94,0.912201657514302,0.1641409870203088,-0.05863706096147199,-0.0019035532679831232,0.048753119397362946,0.02493372570442203
1.95,0.904072348065634,0.1695499485162823,-0.05400885920166498,-0.012735125007283611,0.04968639610232291,0.01168387067471766
1.96,0.8802253113389307,0.1820649123454239,-0.05108178135481489,-0.022148773471119508,0.03409042158137266,0.011646827387972921
1.97,0.9131914527473401,0.17364325097070046,-0.06574568684829644,-0.0003548249461504359,0.030592159133268463,0.006844217880000459
1.98,0.8801549761492389,0.1757218658458237,-0.058331851438461646,-0.01478956530733826,0.022851833823428366,-0.010639066924257732
1.99,0.8815459365975049,0.1535724519797969,-0.05290469826379232,0.001904038732441474,0.030292005586635806,0.007579827215114637
2.0,0.9361832040402709,0.18771916419840048,0.32297520525644824,-0.007642545449136281,0.057171066698550516,-0.003200814572413225
2.01,0.877267992993681,0.16562305917285006,-0.06764309717249639,-0.010162640840724529,0.045233175367679804,-0.004189445179289268
2.02,0.8735331970591945,0.18777558546819192,-0.09389136019771777,-0.011743617504397497,0.027861485607225466,0.01041305881731024
2.03,0.8775470935130044,0.15923214400717084,-0.08447257849290583,-0.020383421602775377,0.04008589439091476,0.014824351865840113
2.04,0.8616903768362907,0.17764694391960062,-0.05752832070848096,0.005100952733898311,0.04799270936414232,0.019972882611176506
2.05,0.886203271167692,0.17302078320476408,-0.07180626642623868,-0.012207270051104313,0.06095711163881102,-9.924954058785794e-05
2.06,0.8778262388069032,0.15161774169118158,-0.08523486326960866,-0.007668719085299605,0.06430144105994962,0.03088882167436473
2.07,0.8660113382103023,0.17685238051292354,-0.05383261284880801,-0.016196559888122637,0.05521798348104979,0.016236066094341757
2.08,0.8151122850839384,0.17528090371030094,-0.36014723602889887,-0.009353740385337123,0.036988589173108974,0.0028499571461954817
2.09,0.8430791076276828,0.1661480754221822,-0.06284692141264346,-0.0032947131868083304,0.05748854275748493,-0.0057450659602887744
2.1,0.8437089541952418,0.15489288599365136,-0.0418759058939289,-0.006802671012150856,0.04117358167887265,0.008280624671056603
2.11,0.8270938603552525,0.18765498104562064,-0.036364931245373565,-0.001398898404692303,0.03758120066346445,0.004031297294706889
2.12,0.8214172285642721,0.18450290807796843,-0.058225193584761206,-0.01216693377589928,0.02976457625160863,0.0021457976766602123
2.13,0.8159468924392651,0.16151573277181902,-0.03887915934379302,0.01544972855844433,0.04755562771364936,-0.0016110059817313516
2.14,0.8221779015397066,0.17306126604682054,-0.061276445184154205,-0.011002901638054442,0.05248400415802082,0.002708088464713126
2.15,0.7997289510471883,0.1732167869620731,-0.05330948101493577,-0.01013534881211339,0.040042518642442806,0.0029180730710434925
2.16,0.8155744143800434,0.1597915397383057,-0.034372900186548774,-0.017761934845260965,0.016077782947183393,-0.0070641371380708775
2.17,0.8115685588092645,0.16993502568479527,-0.05322472590885955,0.0018514202636615556,0.03202025742972602,-0.0014062577393101098
2.18,0.8158873299052739,0.1820200283224454,-0.01321686059177013,-0.014575947008161257,0.030459134654774917,0.006451704121161255
2.19,0.776538903772871,0.16675110763820367,-0.01824082099284048,-0.0018012178916402216,0.04355142624167738,-0.004095814967442643
2.2,0.8043643600366451,0.18074086200250783,-0.04928596501511234,-0.019930924227219086,0.05473835059973105,0.002806696838635469
2.21,0.8017481753861315,0.17768864109109114,-0.050265756520271244,-0.019152909886732367,0.04863736780600973,-0.02426991270030776
2.22,0.8009278323182213,0.20235136062899609,-0.04728374671597949,-0.03908054267961272,0.03784696982236457,-0.0022197468189036423
2.23,0.7948815459120488,0.18654853187970893,-0.07001171540595176,-0.025999506305085268,0.05918596652656294,-0.011179049937628523
2.24,0.7678791672835296,0.2097795163352269,-0.04694181178297451,-0.0006475203450133186,0.04852169288857278,-0.003931259678376635
2.25,0.7660435362666994,0.21662035267499902,-0.0451677766360999,-0.020687786903914013,0.04545261808489168,-0.02283443057183242
2.26,0.7858504015130061,0.2009359218419576,-0.03737077367027871,-0.01976981390046007,0.05419833201313527,-0.009105633085416778
2.27,0.769359234451817,0.1926319568144826,-0.04928663701639621,-0.02922838392323583,0.047074731462211306,-0.003045794157516998
2.28,0.7696405887365525,0.18884513487695853,-0.038660708599641685,-0.010264228028206172,0.038047345707900096,-0.015338460171315658
2.29,0.7764355387189221,0.19929003459362304,-0.052222381940304326,-0.017403454515853428,0.05689791627187416,-0.003369540894114488
2.3,0.7522260373125551,0.20271216377505868,-0.02515587870043088,-0.009371453718495428,0.06514278266865578,-0.014972456187742946
2.31,0.7535659957294936,0.1957426139717035,-0.04687721225580712,-0.012959043023385776,0.05131500409645108,-0.011839646602804933
2.32,0.7611093285753795,0.21532605732592572,0.16055827152965726,-0.012563270807519315,0.04448734105125361,-0.0062429847856510035
2.33,0.7412681916397299,0.20569196224003705,-0.04528968410933575,0.005955093056940721,0.0478408581335764,-0.010768096282671755
2.34,0.7370909417401417,0.1982923144345142,-0.026587873805571288,-0.016682406695844663,0.045896427916197385,-0.004513138463039777
2.35,0.7213739197864546,0.20444837120976336,-0.020194058236422664,-0.022364698838168467,0.06939110367612056,-0.004724897469663848
2.36,0.7126098821844007,0.20626668127179515,-0.04526379908818006,-0.003118237514851168,0.030806813408943243,-0.016075838760229916
2.37,0.720415861858072,0.20843356034233754,-0.05296028763152955,-0.008963040514780972,0.059393924876464624,-0.0010835869341238582
2.38,0.675612681663152,0.19362995916058262,-0.5212256961001769,-0.01542742597974052,0.04191840008022886,-0.0017131438267362215
2.39,0.7170589154488078,0.22070964007858762,0.005956636240247497,-0.005683023503522003,0.05811155973573897,0.0019227595037473151
2.4,0.6935449168460961,0.228817388983149,-0.009185287766835132,-0.014619454208507679,0.07574202731582699,-0.0196841927598652
2.41,0.698612953304546,0.2066994391692531,-0.01718559842953937,-0.006192151040650122,0.0673909617542188,-0.013513210889274012
2.42,0.682218840211604,0.21787959531751366,-0.18060474838115143,-0.01127331292581739,0.03161379072044927,-0.014721525413824894
2.43,0.7032427713441355,0.22247813245947617,-0.02111217150811163,-0.003130825619538276,0.04703838136446232,0.011755051842106765
2.44,0.6902231982980803,0.2139224084476346,-0.00288008087175802,-0.003762580411650124,0.07301927860257473,-0.01729189814661314
2.45,0.6840782213308556,0.22685015645959136,-0.021180777368836296,-0.010042772308048691,0.05286473773965458,-0.013168129709826825
2.46,0.6851982874766789,0.2333277337491469,-0.01930174280400302,-0.009962897281193492,0.0545639060093162,0.016970072103234472
2.47,0.6808572879485759,0.23476612063526145,-0.03570180090796226,-0.004926635954171436,0.05140408193805483,0.002921596791503317
2.48,0.6611700913634867,0.21974371326925718,-0.014700359863307352,-0.003877649352428493,0.06326577627338023,-0.002023976184630171
2.49,0.659819842909594,0.22410979803843215,-0.016729801016037573,-0.012532800626504949,0.0614833455278264,-0.006592099598753801
2.5,0.6547386487486243,0.22343063656508735,-0.038618835844815014,-0.029762581055721944,0.03976683986019994,-0.008094419229015583
2.51,0.6588263430166518,0.22337614107213594,-0.024695998588946368,-0.017961467261967175,0.05058233270173641,0.0011922772038473303
2.52,0.6743394063234143,0.23074444684358214,0.5416356575734698,-0.01882938503288164,0.06707865546288977,0.0030641491019360733
2.53,0.6338958717036314,0.21885920490356806,-0.06400401383724454,-0.003951040459091202,0.06964466343903271,0.009412687664392532
2.54,0.6388840366696744,0.2347630598574041,-0.05060836771711857,-0.018302719120757253,0.0612331901743715,-0.006720997141792447
2.55,0.6291586698694691,0.2469107836071329,-0.037979700433417064,-0.006250709770170093,0.05045284243979211,-0.001397463355384443
2.56,0.6220524404648328,0.22469124201871943,-0.0370012152481788,-0.01591527551091839,0.04932557923005214,-0.0008017231780267225
2.57,0.6204936853841521,0.22911026184155978,-0.058658479371652,-0.016969117106551877,0.0408598113862714,0.003811558918091729
2.58,0.5945729193000033,0.22223228451537588,-0.03579101826377936,-0.01887235830793119,0.07936543125633058,-0.008226309825933779
2.59,0.5920131911008325,0.2551797158027394,-0.025968879046847537,-0.008974403077559676,0.05688741703680544,-0.0019052663585021573
2.6,0.5957549230503718,0.24794313774125315,-0.388194164467537,-0.003575513771193949,0.052534048312275,0.009314117486950426
2.61,0.5876392728310996,0.2501350532692188,-0.010417434886270472,0.0003806591607482552,0.06334142291776529,0.004513556770413153
2.62,0.58444988355549,0.23090883524166442,-0.030397307311802933,-0.02849930905278268,0.04860513551975458,-0.014317886667186114
2.63,0.5935557237337349,0.23437215832437425,-0.02927838597206365,-0.009456321596943242,0.051423298260676244,-0.011575609929705187
2.64,0.6298054356717053,0.2626549001252008,0.9080594294120843,0.0031372976316594832,0.058060267399472856,0.00171034633518964
2.65,0.5580228721675213,0.24904549530857223,-0.0580725448179235,-0.00514375909298832,0.06014378478482675,-0.0076593218459582845
2.66,0.56351281788684,0.24053194276021161,-0.04258059918512999,-0.012577309315451028,0.05553842423524865,-0.014180875559480843
2.67,0.5634074902061278,0.24750822741546935,-0.06664387533577282,-0.004133760046261011,0.0400431791282132,0.005150408093122672
2.68,0.5390574707990482,0.25043089944411445,-0.06815303886496957,-0.01481832165628253,0.06415726792518751,-0.004468207107113757
2.69,0.5345973065556576,0.237496768295908,-0.04921130103105185,-0.0005221497343360251,0.04639022484957853,-0.013140719521690589
2.7,0.5662209852325929,0.25410870081505005,-0.05018106536157189,-0.004946865383482182,0.04531542175309693,-0.02055695260775437
2.71,0.5485086838268801,0.25789187077755593,-0.013067704588880739,-0.009510159536960265,0.06397025701334437,-0.02297588755872728
2.72,0.5277054488048983,0.2367444784113232,-0.19574372165037565,-0.002997793383412743,0.04817622738056297,-0.007170610442755188
2.73,0.5174680278036848,0.25799277537439663,-0.042154765697238174,-0.01799625756589371,0.06133144641092774,-0.0004274217646883802
2.74,0.5294964549432726,0.24202164705081095,-0.025054558630987222,0.004773702698051271,0.04885119481724893,0.0016298920617427055
2.75,0.5138412113550868,0.2546811304201325,-0.032799636623808755,-0.004272897258205669,0.08150686983369546,-0.011428788696788553
2.76,0.5113486792057262,0.23925212746697877,-0.04301155850099457,-0.032680158063165474,0.0594198933937119,0.009470077539434029
2.77,0.5244154317564376,0.2442533693481017,-0.03726248435088411,0.0007407783588782788,0.05223204216781927,-0.008218825202741493
2.78,0.5034275550792183,0.24373577626050008,-0.05290519514325549,0.001993194198013911,0.05000527048834141,-0.009335778512936283
2.79,0.48801575828954286,0.25057530996864696,-0.028766591070764062,0.007916516349815482,0.06979287812282925,0.006063278678969353
2.8,0.5033892411838243,0.2536275090809928,-0.019700970776645656,-0.010282300646030388,0.05244160377955401,0.002406091330009734
2.81,0.482227036642321,0.25047278482417074,-0.04393360113946312,-0.0038220206849067765,0.07710330139247419,0.010134929946183101
2.82,0.4740801068541794,0.24920689397474038,-0.02202879499992388,-0.0060112894981860805,0.05337814542406922,0.00121678048892947
2.83,0.49578047350952753,0.2362998561992513,-0.0493622727754702,-0.006705820485687398,0.06260061143826953,0.0008748031194451623
2.84,0.4503496398740397,0.2593293397513678,-0.05859415859521627,-0.018467345535752397,0.05079959036740053,0.0226236632131
2.85,0.45180790762047407,0.25784673919017165,-0.03316064922359209,-0.007176725425773355,0.07704102803765261,0.013325129188866724
2.86,0.40407713230597325,0.2216823774210722,-0.9292860504580083,-0.005742343880137829,0.06248028302963025,0.011928986372997235
2.87,0.4337274409214941,0.22599816853701876,0.009306582555663759,-0.013053553593777387,0.0624455287884047,0.013407247827476236
2.88,0.44573615063843003,0.25310117781778285,0.0020167720107204775,-0.026383968368746187,0.06133923210557673,-0.00039450318500538
2.89,0.45016212397743716,0.248892493359989,-0.0024611927532640207,-0.008809559449185368,0.05950154360670407,0.0007084321632478373
2.9,0.42215732315028265,0.25663548246844514,-0.002423793359213915,0.009139277884333174,0.06899053681985166,0.0011818739520225172
2.91,0.4184168704141905,0.26716802600039946,0.002728002577811869,-0.006430503906669015,0.06687150301282771,0.00365194902852298
2.92,0.40180571125231523,0.25187587589653,-0.03561230517611579,-0.0045960573109776375,0.0736431899003465,-0.006739925355245717
2.93,0.3985328564761656,0.25729315121838103,-0.007321081523449681,-0.006621643802808195,0.04783234024913072,-0.006949396400289742
2.94,0.41797252940819757,0.2648726456867548,-0.0019613840705080612,-0.012152587919046436,0.05609214261576199,-0.006728088436239116
2.95,0.3824362840247248,0.26979623765893784,0.006722252868753392,-0.0037111426604406897,0.07371758840391118,0.00495220345560825
2.96,0.3908832327261109,0.27684736663929027,0.004243415692060133,-0.004402723084079697,0.05622754392005271,0.00230552547074914
2.97,0.4040470228200599,0.2613885873034131,-0.03719417737751288,0.011748687305378409,0.057875165789577895,-0.0059325726410497754
2.98,0.3724767189033952,0.2533493807934633,-0.009306311576093663,-0.012820851843724768,0.0468997478740781,0.008577648425634906
2.99,0.365478686980908,0.2770259169578413,-0.01705825032269727,-0.0113474163193118,0.05503428753032224,0.0023127583721426104
3.0,0.33153733117276507,0.24224906463459378,-0.34979814836068834,0.01582480126287826,0.0555986434726536,0.02249983476421546
3.01,0.35074106749340295,0.2553511070176114,0.015296717206091081,-0.0007583324942119559,0.0617288092810913,0.018118019758620842
3.02,0.35758287541365247,0.266151025627402,0.08287123996866966,-0.0019662934581181953,0.046732238438321416,0.0055864785934898065
3.03,0.3477548924640316,0.2716397311119147,-0.013958790023660168,-0.001142823964497673,0.04885839144755296,0.008853109347592874
3.04,0.3638479092646091,0.2580872734651875,-0.009682979877964328,-0.0038594507434137,0.04168394475447945,0.01219931161202429
3.05,0.32024475180113593,0.26863426791505496,-0.001172508387680963,0.000897601865919982,0.0539299418395356,-0.012237752707007311
3.06,0.32162610470146297,0.27626697800219474,0.0009170664546186247,0.013870483876754228,0.04094945513550717,0.022694266626570727
3.07,0.3300863231536457,0.2583435345306694,-0.0041668364962267924,-0.01618456425181821,0.0579473100049362,0.01874554300329692
3.08,0.3579316006716636,0.27903614645220315,0.8944084792365402,-0.0018990636325408787,0.042905583386178225,-0.01969792999543625
3.09,0.336261151735218,0.2796050097563249,0.27971020690910736,0.014844289897759658,0.06378929851953966,0.0030249370486868134
3.1,0.31462434207794315,0.2618093691571516,-0.06980593761210854,-0.011254100540879669,0.04205245123740896,0.01626085727045845
3.11,0.30573952563368795,0.2677999690863893,-0.052782979772331116,0.00381499061584711,0.053658362274404285,0.009052818845773794
3.12,0.30357423408419715,0.2733555234918579,-0.16879378713689042,-0.0039710934603574355,0.05939417291435817,-0.005315463278159744
3.13,0.2949266228294907,0.2592472614637273,-0.03732382099948777,-0.005648339499319323,0.0468427365139435,0.010950928060325531
3.14,0.3001187268657394,0.2734882460566467,-0.023045734128183764,0.002836998551910275,0.04539266493682496,0.00304958206779447
3.15,0.2754237708754604,0.26996951126613966,-0.01638342778846234,0.004161988731786187,0.05339654247002969,0.020895195473358604
3.16,0.2813918961499907,0.2533691231246798,-0.025777820420787377,-0.006312838055166883,0.05508764578939037,0.008870843043854448
3.17,0.2766146331733274,0.2757728701876234,-0.05067468831626576,0.006103755025431704,0.04232909121678672,-0.0020500102220903727
3.18,0.2734147836538222,0.24919697061398868,-0.03744257594455749,0.024077263995168702,0.0416925102967556,0.004118634783447752
3.19,0.26984947344632904,0.2727720510357083,-0.03769929036800136,0.009489848800642041,0.04106413401042298,-0.00917035325291438
3.2,0.27186313835415593,0.2635342132200426,-0.03986758367243521,0.010095754419661204,0.056665608307012005,0.003721434437646033
3.21,0.28207484180106607,0.2638230800975387,-0.026526776441511968,0.0023945631175461522,0.05897816673631317,0.0007686766023284779
3.22,0.2527370840248848,0.2536076916196681,-0.05126633310262161,0.023463968194348966,0.05369767022093354,0.004072695571950298
3.23,0.25983872534620706,0.2754021222926954,-0.04033646431985614,0.0030578920365040203,0.053012890366034446,0.0007726700900518007
3.24,0.24305216854631687,0.25714752241297256,-0.02870603738571319,0.019308474900932647,0.05386294077633985,0.00018916608027991309
3.25,0.2458297971674254,0.2568257208833497,-0.037908782144869424,0.0024380550786181933,0.04947873871247467,0.00990002250295326
3.26,0.24158145748381837,0.2546157024905764,-0.00632212676149653,-0.0004169983264394042,0.04931845101647836,-0.006264968862071954
3.27,0.22475951528006477,0.25345855799129585,-0.046645906166030586,-0.001058652989206185,0.04759549590038516,0.004908567649451181
3.28,0.2175377742123215,0.25835765675397176,-0.021993000875233204,0.010568898933807061,0.04608104688210262,0.0032916353208777985
3.29,0.2115634955397909,0.2554315471367201,-0.04479252369478881,0.005351403668714762,0.023749589801775623,0.03487455977162971
3.3,0.21707896318176784,0.2663928739364205,-0.03136496332446077,0.0057337905681054254,0.04051577023987646,0.015591875396817886
3.31,0.20516443914301452,0.25196878328939515,-0.1541401627591634,-0.0038705892183250237,0.048181111372851804,-0.008589018670481964
3.32,0.21401234979178052,0.2628858257906888,-0.01907076370732296,-0.005616186955552845,0.042294283528308274,0.0071970724917980655
3.33,0.20299440087789614,0.2531597330307068,-0.01759953782453904,0.014359058619884506,0.02806020872074603,0.018752212885044035
3.34,0.17888003539249703,0.25816456084098205,-0.03481987365110442,0.00012596238536002977,0.04539336494845857,0.005138253943512581
3.35,0.20797114549291373,0.2784265417407748,0.6376912416157515,0.03195988897346907,0.045187608219595006,0.009086635818861752
3.36,0.19223961789770375,0.2663551041271456,-0.07134145912886888,0.016279315295877738,0.03328672377736755,-0.018533757828476292
3.37,0.1836428180165335,0.2461130808769466,-0.06553430161567948,0.014142388231312785,0.04762952657353413,0.005535444931948773
3.38,0.1772991970128925,0.2292477040514498,-0.44428072513190997,0.0029351524896905675,0.044578023854976806,0.0244402361356275
3.39,0.1855937173473396,0.2375861112933786,-0.038511528403396375,0.005993277454119679,0.04652864401588607,0.002839670083156881
3.4,0.19249848224029562,0.24459271329229834,-0.023454245643213772,-0.004894050164506029,0.046476209408199916,-0.0029564180719958595
3.41,0.17510723680220058,0.26187430612106005,-0.026568413579343107,0.005335506713812761,0.03621557406744982,-0.006859916780999804
3.42,0.1730510821293852,0.24996992160199594,-0.036064778047603524,-0.008006311603840258,0.042804994348752116,0.001952433033517427
3.43,0.17760037128900613,0.23239061718359555,-0.03530621209951705,-0.01406072596707151,0.04992024669839433,0.013170856741414133
3.44,0.15827530695818004,0.2467180401627035,-0.034923056619032125,0.0034883676266581334,0.05512607679970535,0.011006199231392
3.45,0.17351009971007572,0.2654243629020043,0.6364453646506845,0.01650097470089784,0.03747440381690525,0.023082094806789175
3.46,0.15726752287773194,0.24371059790551153,-0.07718425640733118,-0.0055570360444930755,0.03705624303293196,-0.00428489618072731
3.47,0.14677402646269527,0.2582697699542675,0.12362408634602173,0.0050505842365566305,0.03551823027887198,-0.002258607394821128
3.48,0.13786016928244713,0.24776256765363872,-0.06870702600853433,0.008657371038769693,0.053059351830701554,0.010858547227716491
3.49,0.12227244439883167,0.24454786889982083,-0.06395656678608884,0.014351177643995797,0.05087212612872043,-0.004190891709647436
3.5,0.13928053305122431,0.2385157622038758,-0.059439925716543184,-0.006319754603293979,0.05022725721404857,-0.006470403443668465
3.51,0.13702074834513878,0.23251590043009174,-0.007678981644459073,0.0036227250634684764,0.030749624867311212,0.020781387365386688
3.52,0.12087812764740404,0.24085405222433334,-0.07363341692708238,-0.000489714091508991,0.045306905474674766,0.008187400509922928
3.53,0.12261852816833825,0.2397485116783053,-0.03974393724130969,0.00465809753622351,0.01831907899643367,-0.0001429995471368419
3.54,0.10088288587964331,0.2439927885853119,-0.03439567469411606,0.0025510337066335957,0.03410620640467313,0.001671365404017799
3.55,0.12310589979069819,0.22546876264566126,-0.03289677212914915,-0.012404039658651524,0.03398460712002774,0.007840593139071959
3.56,0.10440855920684863,0.2346933406965594,-0.03877535644668032,-0.01873102841956345,0.024666865011833863,-0.007748254014347086
3.57,0.11590621549123942,0.24436538759912502,-0.06122479310836848,-0.01106628067304843,0.024859111430240003,0.005629996106696998
3.58,0.1098912191509635,0.24269191732488354,-0.04923916581052451,-0.013512065691448538,0.02664505051275251,-0.0037269406375471667
3.59,0.0947286278813724,0.25011402258998616,-0.02624177688205106,-0.010885744178654951,0.02532267721627589,-0.000356372715934005
3.6,0.0965715828556676,0.23847639203424742,-0.03908423442700923,0.020033626892053635,0.02822099647091246,-0.0004081924299207145
3.61,0.09354985766078308,0.2357543665712554,-0.04650615338041242,-0.0004213274370174383,0.034203966945003154,-0.00856523169921902
3.62,0.10353265027399045,0.24585734147628396,-0.06453594001314426,-0.009713317422512186,0.03484267572194956,0.005863905721294268
3.63,0.07810046182937584,0.23966200125249876,-0.07452465092979012,-0.008853566543071258,0.03830942632557608,-0.014571327677407566
3.64,0.09129296864579943,0.2445061383500765,-0.0363536366812422,-0.0003188691060136468,0.027734776103837188,-0.00300864256637567
3.65,0.06717516391514126,0.25156764815237703,-0.2853167490473029,0.0041702895819973095,0.03186041063129451,-0.007191609737013441
3.66,0.06321443909971518,0.2534617499123947,-0.015099793362333767,-0.01917801890009376,0.030344682974813367,-0.0041996501982578625
3.67,0.0912279256131726,0.2520167092648704,-0.051589841720416085,-0.015815596121562518,0.016367326297706816,0.0010104846876241138
3.68,0.06854886301601149,0.23470836092259792,-0.041037350680369906,0.005133436496770446,0.02100509816198196,-0.004389260697553395
3.69,0.08170961911568472,0.2530321977640912,-0.029318958493347785,0.011666073235447797,0.02357191890508224,-0.008837596381733287
3.7,0.060894336841127494,0.23476127947550568,-0.02999905616230061,0.000687950614250645,0.033639870705994716,-0.01324556568684486
3.71,0.054533369848414864,0.2447685440967561,-0.04201883589669402,0.001521319428128609,0.001654376391346423,0.002144666395884138
3.72,0.05592311495025894,0.2478843191131481,0.12615974256809862,0.005913554003392871,0.013399688109217111,-8.92671026948115e-05
3.73,0.06951372300033164,0.25653363843679095,-0.06463788258965132,-0.002552020731104149,0.0316876151346349,-0.02774834967805126
3.74,0.07642037503868059,0.2545019520735648,-0.024382582514502652,0.012265138354419797,0.020392154669433574,-0.021117070525417093
3.75,0.055290545803195715,0.2542443838538202,-0.04492579529497753,0.011018672085730992,0.00362111733011853,-0.015470208703672954
3.76,0.060678615088217286,0.25651724890375366,-0.057183305609314644,-0.016376137151948637,0.015416896984176956,-0.004442227326572958
3.77,0.06575087885222508,0.23571902736218828,-0.37839731246888186,-0.006468899325211027,0.025901129402508376,-0.020680600813808743
3.78,0.06273645032427978,0.25994047390804415,-0.03780771506202533,0.008782514245267815,0.0203432349937703,-0.01664649526427297
3.79,0.05121630065128543,0.2414751194289727,-0.009923712098465234,-0.0009078902537641496,0.03205211266052033,0.0008484679756034326
3.8,0.04650409150117462,0.2613470852271611,-0.015963597737146066,0.007739982273792901,0.03105348262921237,-0.0009324207236291633
3.81,0.030468985395963138,0.24909328839722036,-0.01914784130280476,0.008522595902576317,0.015546569408236476,-0.013706192780328648
3.82,0.05055587688749315,0.23893851994288637,-0.365992079893259,0.003305459719109831,0.0046406321764023185,-0.015334403251147155
3.83,0.03681094824259513,0.2452523923145699,-0.008330942238220285,0.012682428099249592,0.01044699269207682,0.0030579252467677577
3.84,0.044902113339299776,0.2605893301140929,-0.024030974928241126,0.008553759677946226,0.027419205075265393,-0.0036368326286227437
3.85,0.033227426292797645,0.2362525179168297,-0.010941887081344498,-0.014561670795976527,0.03145493961846271,0.004115628183282894
3.86,0.057470775959612336,0.2562062397835315,0.005349877285107472,-0.01456811676724564,0.01660403917349486,-0.004106827636023162
3.87,0.04510987869834881,0.24609904893466977,0.09232786796561651,-0.006405758081649449,0.017564535749740956,-0.005658266606717719
3.88,0.04108376046163242,0.2549805625369237,-0.024671387156481712,0.00449307590322349,0.025834694308828024,0.00959554362540676
3.89,0.04304401809641591,0.26363131860609657,-0.037784200798761984,0.0029103027307766987,0.013790977788012174,0.008690139301640415
3.9,0.030581394780595947,0.24030721658707882,-0.016194679430946556,0.0037594144111336996,0.042331226435693356,-0.0056291914329395605
3.91,0.02930154513988032,0.25554510252083973,-0.016737962628500518,0.0002018205386521109,0.028093809364184995,-0.0051510778778857055
3.92,0.021193511971121765,0.269216288025188,0.2602514326465779,-0.011725616985442748,0.004659039591312182,0.019192899950499026
3.93,0.021343810696272225,0.24028527881689501,-0.060725689983803524,0.008981422450689303,0.04006532537720946,-0.003026690324025514
3.94,0.03653232486621692,0.22382862371927356,-0.8060856223267827,-0.004914665549367033,0.018940591968035762,0.0027746851738193203
3.95,0.02995880103417045,0.25654188309254283,0.028827861370428007,0.001911824960100986,0.03648276953706736,0.026842290441411808
3.96,0.009985977886387148,0.2548760116896859,0.006297692962273256,-0.01911146872491403,-0.008786293712056512,0.03138938735485011
3.97,0.008473296784656092,0.22877598333923602,-0.8329951055406027,-0.007413671347752682,-0.013809361809279557,0.029044893110128346
3.98,-0.011545537792300522,0.2248820214966822,-1.1406009026776431,0.009802854492428176,0.028502699259595574,0.019979793100314204
3.99,-0.014907271836484784,0.24149626168881258,-0.22129273182896042,0.004407967127883806,0.014614325803862752,0.0006021136849319129
4.0,0.02530821706988173,0.25315773490798865,0.0940767763650904,0.0014321397484665468,0.008543531769027946,0.013387022969866139
4.01,0.02297020190548294,0.2590431434387283,0.09958527226793641,-0.009362042637881797,0.010044923450091375,-0.009021820996640065
4.02,0.01120644655094135,0.26484777444134955,0.06028911395504761,0.0020968987437046073,0.008846598022294237,0.0007739935149883165
4.03,0.022324057363463042,0.2531205858153215,0.047808104219612665,-0.0033565203433078084,0.004528581043016235,-0.005839682282752344
4.04,0.009996282440231432,0.2554397209838472,0.0699935825214672,-0.0008101460949378459,-0.001715658353741007,-0.00269437122625251
4.05,0.008940317790611087,0.25337803891726496,0.045283529127888876,-0.008186600167060635,-0.005531230904545124,0.017149821392248195
4.06,0.009599236021265774,0.24886345802658552,0.05520216301579612,0.0023466981097542312,0.007150229462146678,0.0016934818777225012
4.07,0.00529409565705785,0.24635366298448236,0.025726750203540504,-0.012148980563084506,0.018964348545311788,-0.004884255679547436
4.08,0.017410808473887547,0.24867298480362643,0.05473699508796934,-0.0028157369224816806,0.022736663367269094,-0.00037154659917088256
4.09,0.014912430565987565,0.2601229832705503,0.03700184186338348,0.010902776292150255,0.006572893475095015,-0.004292912627952726
4.1,0.002165705566877503,0.2489283426278135,0.048341861666252366,0.022004975772416866,0.05485118185769439,0.007290146895765412
4.11,0.003016401012736559,0.26554250465565454,0.059204706159181726,0.0016503123538043722,0.0424725306590204,-0.0017778029045977437
4.12,-0.0029677898833149192,0.2501534373623643,-0.5465166740026506,0.007316322619429754,0.03897613995669484,0.0022219708936959677
4.13,-0.013430524616393989,0.2510974214868538,0.06133920468526129,0.0009445401690635578,0.02152309851334363,-0.010886348104589683
4.14,-0.01769953480280162,0.2501495654314865,0.05738928432667251,-0.0018353597560870454,0.03960966246305409,-0.007731166910574875
4.15,-0.01170226337240072,0.2504642278335532,0.04597701841586133,0.013023968326590725,0.044776401591956554,-0.0006823241087348561
4.16,-0.03234804274316566,0.26637420843506693,0.06596061712510022,0.008241084441189428,0.02337863949633051,0.00697343345069453
4.17,-0.007486323017413627,0.23445430898214487,-0.05903148466058389,0.015661992992055805,0.0036691893251677675,0.000526202378859154
4.18,-0.02342727642385105,0.26524129879788744,0.040916179102452974,0.005287187506323633,0.01183874102935086,0.007633561082452754
4.19,-0.02219071925311228,0.25639123851369616,0.0287386084210808,0.0024200352757217467,0.032460662664302684,0.016397362327507867
4.2,-0.03451236014820613,0.23863038421682492,0.0472769655206381,-0.008377006835357461,0.04055797670730189,0.0077479448769258875
4.21,-0.042118068770640456,0.24112650459482524,0.04684404723153672,-0.010862117524537036,0.012751624983892266,0.004656291581372684
4.22,-0.02668930780996534,0.24974126935955948,0.023870536348851962,-0.001466374096782309,0.03207489704892987,-0.005072514828623202
4.23,-0.0388934409095,0.24580368788639081,0.038840608735297,-0.01873216429276487,0.007938594583322734,5.902388555236067e-05
4.24,-0.0471573345206041,0.263154333802828,0.03496389703469419,0.011038533916651369,0.03456985109565497,0.001595541339511421
4.25,-0.027393261499663334,0.27452239815381124,0.15653433968004096,-0.0024861991534836274,0.026998485501316716,-0.0031061869547398687
4.26,-0.035327755611250934,0.25717549979150817,0.029396434088988448,-0.018543369706867138,0.020878506539917262,-0.007699701902834264
4.27,-0.031374827561339406,0.25742849519749617,0.011353608570839852,-0.01616141254295754,0.00410424877283082,-0.0015615926743797978
4.28,-0.034958839942279815,0.24983203977222376,0.020860337025289034,-0.009307447436259456,0.00898837818315753,0.0067500790829562495
4.29,-0.0606212482651517,0.2502250050442982,0.023762556779308268,-0.004063102953722803,0.03611369517704174,-0.010388586543303612
4.3,-0.05334350685043661,0.26001483460309655,0.030895688998177205,-0.012092436433497323,0.025919463072396648,-0.0032611629993535276
4.31,-0.03472466566207666,0.2570059943685353,0.029834787121725728,0.004233294847927158,0.02791998910858756,0.014948019976293232
4.32,-0.05402845898813539,0.26231442418614476,0.007635450126565355,-0.006239155532243673,0.026292992368736647,-0.012872667450862418
4.33,-0.054643009820940204,0.25487293773581343,-0.73289102348538,0.001473026903079842,0.02778307024403693,0.009609979867460938
4.34,-0.05199794603883585,0.2652349878627465,0.05603061012817447,-0.004293246575071708,0.020803772129198844,-0.024820500938874668
4.35,-0.04453135412087579,0.26949565414556875,0.0543871904425125,0.015348015914881394,0.019619401898617023,0.009221421530283986
4.36,-0.07401500194815328,0.2621237863387994,0.05630976548884517,-0.0005945148529827797,0.016516541642814606,-0.0028576348014959334
4.37,-0.055488601720393216,0.24112547795578598,-0.42999100442798466,-0.016110279301685505,0.008903323507104714,0.011667485329087488
4.38,-0.0726878347053738,0.2622447246638202,0.07675067184638347,-0.012301449173162097,0.01198205466758985,-0.007461511945242953
4.39,-0.05734478112280308,0.23967507535374083,-0.528563097320542,0.020032619866952085,0.020880805732029325,0.007999514589705159
4.4,-0.07794941220260859,0.26086130347600034,0.09564580348301636,-0.018745624485712105,0.013435637874879535,-0.024869079230470218
4.41,-0.06783121931332778,0.2639284041137385,0.10428291798975771,-0.01821021070221468,0.0002759398422873243,-0.0009331669022004576
4.42,-0.07401424326519519,0.2551433594447702,-0.09482759926388518,-0.014119128876240955,0.0047136845593151126,-0.007538714676256952
4.43,-0.08087220955413871,0.26362566089189654,0.08154854648075138,-0.0011598059037162675,0.01759982703873112,0.01032955491772793
4.44,-0.07992755186962716,0.2612115236637803,0.07092026024759793,-0.014835928127655985,0.023790789622769593,0.0036573571447228725
4.45,-0.0804057783943383,0.2554327369855693,0.07243902770781478,-0.00033743294943013643,0.006568657119064399,0.004601841158693123
4.46,-0.06768730133590695,0.26131175155613395,0.058273434731886384,-0.007771095646452664,-0.004874929762823306,0.007582190685701969
4.47,-0.087630271472396,0.2671936787314742,0.036689170419934046,-0.007124321202495538,0.016699283312174528,0.0038043373237551152
4.48,-0.08329265713654609,0.26949407096398936,0.058761938307174556,-0.00497977881846891,0.0008058635322312126,0.006707923498877158
4.49,-0.06829023789444641,0.2614036226208673,0.05973272962644162,-0.003214295879577499,0.013498201367253548,-0.003640961608492966
4.5,-0.08271927537510494,0.2872388777138549,0.04484268969969819,-0.009679765173694638,0.014961003150432094,0.0028300943674815573
4.51,-0.08648856488462298,0.2552654247810241,0.07622113657724998,0.00996305753686814,0.01256597859869869,0.001067652071475299
4.52,-0.08929868682261852,0.2625435794527981,0.03832218667338086,-0.006808172676124391,0.01746638556578315,-0.0002668894938915912
4.53,-0.07877193421294099,0.2665409045377394,0.036447016693655014,-0.004577366421886683,0.023330924749402647,0.01588317533168111
4.54,-0.08925284117595816,0.26345907003631847,0.03797502000846979,-0.004593597780283059,0.008021161128211754,0.004429704736442558
4.55,-0.09159325128217846,0.2646362045790364,0.047730829540738595,-0.004395685959728646,0.04188821412587171,-0.00769100379527774
4.56,-0.08305325557942253,0.244374177429576,0.04295148987584097,-0.018317849692419397,0.030459954515210875,0.014108784912052651
4.57,-0.08975538215217767,0.2664768417621367,0.02836044261973969,-0.004469929434819454,0.008824238669223152,0.006979832735120022
4.58,-0.09480088970201886,0.31216333449389505,0.8909967323514809,-0.0034531620886810344,0.019376063194485656,0.004140076521095849
4.59,-0.11814195986101812,0.2617242590714558,-0.0044476162526278454,0.012944780407053364,0.043853170667293336,0.019832516072477286
4.6,-0.10502772430567289,0.26937912464478264,-0.007474611966707826,0.006160144698806989,0.031595846665331516,0.0029451965162094903
4.61,-0.08167093643789292,0.24787963362911586,-0.8058456866744822,-0.022097946162334223,0.0012880787520574508,0.02434950535711868
4.62,-0.11162540495877732,0.2725593079922669,0.02519535395288615,-0.022296926604702172,0.025667238623567026,0.028068248681540103
4.63,-0.09398365201460104,0.23661242408532532,-1.1969550298437668,0.0009000040647019012,0.01834035420707416,0.0010212285100729083
4.64,-0.1169878148578809,0.2813103469579216,0.7196647992638757,-0.00135713741520043,0.02481234005406276,0.00019265329850915412
4.65,-0.11205203992123522,0.26550490808053123,0.06466688237477324,0.028157561439156334,0.03341919887195584,0.009794570093975165
4.66,-0.09419688225486246,0.28991777523582374,0.059845659201191566,0.02100627792967314,0.012406461832570008,0.009363840660326342
4.67,-0.10170053637820932,0.25931906344640104,-0.3650491067204241,0.007184806312541096,0.0009189059318906213,0.008928895144743886
4.68,-0.12572196368462452,0.27545526732215686,0.061670602553351814,0.009603174729411794,0.013761331204341264,0.010147746637496246
4.69,-0.11154556505850693,0.267366032930354,0.07563890444783189,0.0025902420047582133,0.014486561420973655,-0.002249341105057958
4.7,-0.10196659633197061,0.2546596880208737,0.062026996264363504,0.005408876046627695,0.017127384142607418,0.01177571726282536
4.71,-0.12194862361541436,0.2541750928101126,0.0678832189531911,-0.007688428229690898,0.004385434318146397,-0.01703653819176428
4.72,-0.10678231921242061,0.27587891604427534,0.029446636085585377,-0.0033727959103707003,0.0007538071248562855,-0.006511932540521254
4.73,-0.10904881609355248,0.26701542007599877,0.036639315870191445,-0.019907218295011037,0.016148384947805305,0.010023501515052142
4.74,-0.11683155201536852,0.2706720334549189,0.03896851037446377,0.0125304014641633,0.02323715085505665,0.0026043855857569437
4.75,-0.11299030369941085,0.26264835853922464,0.02324830037867733,-0.004902093412377099,0.03870125134277737,-0.006791631306737609
4.76,-0.1189704350004699,0.2773895330266864,0.05618959055941447,0.003109357428046137,0.009134934948046946,-0.004109114375970488
4.77,-0.12754673944704045,0.26939646289609576,0.011489227339751204,-0.01871042977590634,-0.004303513571053066,-0.007462424004878545
4.78,-0.1339877363425659,0.26052632460160213,0.019863782847516782,-0.002564897532367641,0.00860180704253838,0.008456762956302138
4.79,-0.14234886097468336,0.28871363357039326,0.49184444769744934,-0.005941083321560734,0.021957031871349217,-0.021523024230722228
4.8,-0.11457645144569356,0.2673632341991237,0.01774388042900798,-0.0011855108301127935,0.021139810933792677,0.00020131313008765707
4.81,-0.13667330703604505,0.26043640514998356,0.028585946672656848,-0.015436140822477363,0.007229977935092204,-0.002951161637818322
4.82,-0.11776588134918972,0.2746277611118907,-0.012337498533223789,-0.00422597827150935,-0.001541741658858396,-0.010545618770874296
4.83,-0.12924528335491325,0.25410491346465386,0.022297163303965615,-0.0046129793757811,0.006481067093684613,-0.00577686711002754
4.84,-0.13558359171997378,0.2685763258310719,0.001044672060897884,-0.01700740524278998,0.013883358892348993,-0.006653005755187577
4.85,-0.13679598951512537,0.2764922884854686,0.03582575190329304,0.012533798042013872,0.021429455435526025,0.01788248168069234
4.86,-0.14391778569336308,0.2707721306559147,0.0230533647021512,-0.019118061981359534,0.012533681596360683,0.00020694452236428434
4.87,-0.11002264515605725,0.23147129794795868,-1.2420436990959949,0.010164480255527217,0.002703733882325179,-0.005574475456183458
4.88,-0.1544486103014451,0.27201342615244145,0.060538398786375604,0.01013297117940443,0.01019029638307866,-0.019500151285036463
4.89,-0.14079547951821864,0.28984013614278736,0.06074058686308817,-0.00045396363423653996,0.021474598568035866,-0.00528095447012833
4.9,-0.12934730330889987,0.2825609346062582,0.05938227904908223,0.01090491031218701,0.015608004869427577,0.007241950205276748
4.91,-0.1460304980700751,0.26557276253105355,0.05635854921463641,-0.005408903004470257,-0.0018556787107159673,-0.017593671708457416
4.92,-0.15765326575763144,0.25931013040036666,-0.6999387629535333,-0.0006781996620255784,0.030950798668899823,-0.006997589923083908
4.93,-0.13719142008385257,0.27900135181982316,0.05616644077983963,0.02151298121867217,0.03225529580327163,-0.008928578048336976
4.94,-0.1456634897022953,0.2807972555845484,0.06616937455489157,0.0016463144747888249,0.0240859475949843,-0.0049022360287447235
4.95,-0.13941032367824843,0.29281229770750167,0.40734113660528215,-0.006008014345156288,0.013298311872834399,0.0029237938831635484
4.96,-0.1463529348296591,0.26766145382881285,0.0649613126956092,-0.004362726665779864,-0.0018463398744203276,-0.002820784634362699
4.97,-0.1414019531951902,0.2762439946918051,0.014446081853370004,-0.001712738801044271,0.01541494366508514,0.011367968482097547
4.98,-0.1333741939859513,0.2792560274942048,0.019923505792396545,0.003973280180500193,0.013507889367154139,-0.0004975361706008891
4.99,-0.16900286163405637,0.26819354830092584,0.03349403791126333,0.01246105601755191,0.014375400564180072,0.014920734340186939
5.0,-0.18018011873733597,0.28759291778303975,0.05205376813915066,0.0251721579056961,0.013343184444772591,0.007703677286429634
5.01,-0.15437309518007428,0.27049749659383926,0.0629770747994454,-0.014600230275693439,0.005827585216425058,-0.003210204943460612
5.02,-0.14710552403189966,0.2511480473183222,-0.203223575103197,0.0030371043478403846,0.011832393152143888,0.02201858469879614
5.03,-0.16527620267197282,0.2682652326535534,0.028538714716343228,0.003024242190453311,0.01278663704742967,0.014267149199113474
5.04,-0.15149816338112668,0.2626046988960029,0.028852733948993306,0.0009238884088439425,0.005118561101706559,-0.002624708031656039
5.05,-0.17742143227464385,0.2712237603044023,0.03628619413787224,0.012110150357351638,0.014479502414784507,-0.002827125167184988
5.06,-0.14099708180171341,0.2621998169792392,0.04739796665136369,0.0003704266189834839,-0.00142139266701524,0.004733799007023361
5.07,-0.1761458846122831,0.2763028232915108,0.4714400685178377,0.008179349385307256,-0.009480440307544203,-0.0031363489553585034
5.08,-0.163325278996765,0.2775112230683649,-0.0026534251075102685,0.005321967542424505,0.012307459174512373,0.009314387561953106
5.09,-0.18455268358159463,0.256653067172661,0.005306223254970709,-0.02228530892390021,0.017624053143042273,-0.01071650441170363
5.1,-0.17803842027318129,0.2499588397680623,0.026633938841518337,-0.01935519486798366,0.017500871080763643,-0.012870672661705447
5.11,-0.14552163802776075,0.2603358675057535,-0.16094213845871105,-0.015091110524941916,0.01430905209930257,0.00704322571520598
5.12,-0.16219312464345365,0.24787657515057843,-0.8327895656884123,0.004372600346295687,0.002326065299783682,-0.006183305126184128
5.13,-0.18512393192111698,0.28063043243048674,0.07255036156831426,0.004702423727372098,0.007493252631609151,0.013766607720782233
5.14,-0.17448162040762663,0.27651408006851264,0.06586607149613703,0.018831035196890153,0.023220742199707635,-0.012711820308720126
5.15,-0.16982407466407654,0.26637297265881116,0.028312367424628185,0.0063785434233142035,0.012946238142635354,0.0059793368504423615
5.16,-0.17620348700220972,0.28450901792288874,0.24889809635999516,-0.013308759745396982,0.009658097430877232,-0.02380256392561187
5.17,-0.17065357477186605,0.2698053663385421,-0.002864107926086615,-0.004418316412179466,-0.001896913606173477,0.0038480626442287096
5.18,-0.1587153776917672,0.2557191503162542,-0.37892239975652897,0.018631015975616033,-0.006878921558732185,0.002865931048334736
5.19,-0.17106918976717408,0.2625014070300734,0.03866183825106836,0.013834532012019255,0.02363921572954168,-0.031398005984307496
5.2,-0.16543236540032702,0.27216889243524134,0.17916474699836774,0.0072157089460147626,0.007100917070998708,-0.010913423313868685
5.21,-0.1824640066586636,0.2587407334059318,0.023793095752825934,0.004193017352460605,-0.005480826042704636,0.0025648310903730372
5.22,-0.18044892830974074,0.2610500722142611,0.0008107928427410309,0.0014988550901415757,-0.006680259851208905,-0.005244090201328868
5.23,-0.17048491716510164,0.26722410042562184,0.01750500917227717,-0.0071478718814311625,-0.00028763014639709636,0.008709809826731273
5.24,-0.17077067688852496,0.2681240144456838,0.011811222913047377,0.022682434682205058,0.013474355140976967,-0.0058975408512605375
5.25,-0.1688441749724376,0.2683736544934536,-0.2731851996798267,0.002679850761251419,0.024329805526317787,0.020470633449148366
5.26,-0.16991749234455036,0.2531394855001608,0.05256330171503451,-0.012351584335269339,-0.008615771788459972,0.020831435707332334
5.27,-0.1577199058274532,0.27570825126239096,-0.2518875518921902,0.010087516407932758,-0.0009437919089073047,-0.003068128074761185
5.28,-0.17770039427904155,0.23901617162393254,-0.8112625417686026,-0.009572167825556213,0.007248389925366276,0.022181944084493928
5.29,-0.17372471141100015,0.26874424508025263,0.07326992768802161,0.020924494228300623,-0.0015421799332348777,0.006519969644863883
5.3,-0.18774766171035365,0.26910027875016646,0.09887075948960472,0.03144688749431275,0.004960725069836653,-0.012827336120099647
5.31,-0.16972721071789681,0.26579728491485516,0.08398966087387094,0.014333939548518713,-0.011992035267360625,0.020273114882877204
5.32,-0.21088369135998022,0.2769704007295617,0.9081286467714574,0.01564378432549842,0.016792691297472746,0.0031885522670089123
5.33,-0.18356337365474643,0.27486605132782055,0.31083566668533497,0.011320145206747751,0.009243804808471555,0.010055425698981319
5.34,-0.16954791380696702,0.2523877281541931,-0.010340068708774778,0.00807857330010445,-0.0028081857510157578,-0.0023215010107505932
5.35,-0.19253196421524107,0.25918725825880595,0.010350334111876153,0.016295939137850598,0.00684435798482677,0.004165570553370361
5.36,-0.17097579170825353,0.2528004428363907,-0.00332214142464452,0.009878123904030884,-0.007194588503172168,-0.002164553557998936
5.37,-0.1718237208155629,0.25823090343038946,-0.027997072769047976,-0.00028910926297901277,0.024678188139787997,0.014624710464815123
5.38,-0.17448293342907684,0.2490846806213824,0.005904600050057256,0.018724920123152813,0.018488348474430753,0.001774551862400709
5.39,-0.19717801843019872,0.2743976503847402,0.5738769543720629,0.002409993871163557,0.010654351724383105,0.014419519706385628
5.4,-0.179264116946281,0.2359787862821581,-0.021028473722181487,0.01603946607905087,0.0023319124226529597,0.009378857693598036
5.41,-0.19403686464478265,0.24817487253260523,-0.008231296567590352,-0.00105260747165254,-0.01256284234850112,-0.004296114044827966
5.42,-0.17211428897741035,0.24574539386228053,-0.036202717879233334,0.009592475062047752,-0.014827573273204156,0.007362484718748172
5.43,-0.20241063598878728,0.2457733581472043,-0.007260002995369504,0.001979953359869005,-0.027058418178785196,0.0002587298001029192
5.44,-0.19698633901170076,0.2516958485165634,-0.014486049488107978,0.02163583321822581,-0.01670959842397389,0.01851021955402771
5.45,-0.1858703345791856,0.25620045896963684,-0.004204251008918683,0.013964938893243135,-0.02407488376503064,-0.0005714715584778664
5.46,-0.18501516541158103,0.2638045092930493,0.7754855918047848,-0.007685777891035712,-0.01952312209213674,0.014485534139572643
5.47,-0.18205284819047476,0.2553085118820231,-0.09180400422324102,0.015618936204024516,-0.013625247078362513,-0.017737702520333947
5.48,-0.16543645660616857,0.2499207339477533,-0.2918473222568931,-0.009559866425825365,-0.01641552076517114,-0.004421100393249975
5.49,-0.19329757084503585,0.21178366266118112,-0.2106839149416892,-0.01338128571975691,-0.01570188195253818,-0.00758240902760975
5.5,-0.18172254808485544,0.24889479432474662,0.23220468596616628,-0.006558988339858279,-0.0034091455616772318,0.010557629433402011
5.51,-0.1909828225693732,0.253449656841973,0.507339357054678,-0.006707101118707763,-0.017272832860306505,0.00791661272868269
5.52,-0.174900274847972,0.24430557681013534,-0.07345556240024333,-0.012199016489713391,-0.00967385825310794,0.000801248686310371
5.53,-0.16918898211713185,0.25532773937726944,-0.05970753928088465,0.02291139664389047,-0.007114240042152214,-0.0031009656933190556
5.54,-0.16320620003243896,0.22735014170869955,-0.06436582695397164,0.01362484733977849,-0.004006392751293551,0.005481319697576749
5.55,-0.1523246705289405,0.23655774640571828,-0.04820240648007902,0.008648365803994492,0.004346825457407451,0.009396305587433245
5.56,-0.15818411209685831,0.24694676369469148,-0.032714798726353175,0.011261869717625975,-0.0014981228295711576,-0.011461244139887182
5.57,-0.17012734842214694,0.24631926430262377,-0.43137029238517255,-0.011854935118866098,-0.0020100716976042075,0.0006084828771673757
5.58,-0.16154816027381577,0.24070919244589634,-0.03177615755803348,0.00040060522207220877,-0.0006474508245062445,-0.008791135568851718
5.59,-0.17674283165856003,0.2378511967986815,-0.034510907870131315,-0.00769825239369966,0.0036434847341597935,0.004521972930349038
5.6,-0.17206499729204955,0.22177574794273044,-0.03246834973303575,0.003304122418222607,0.014368569233011944,0.002251405270265989
5.61,-0.17165398477159818,0.25025535901341545,0.0008359446726675518,-0.01456763620243821,-0.006296305398118549,-0.0006225937536979583
5.62,-0.16470426469741148,0.25711708397427235,-0.05904441109913871,0.002019519191421978,0.00657910293715972,0.007876850254495537
5.63,-0.16448621271140654,0.24787468547501695,-0.0573206515400211,0.014617672897312774,0.009915897967282372,-0.012628502427153378
5.64,-0.16939860613986768,0.24803104067467074,-0.009937843336203185,-0.015981113648477915,0.0010442205163078014,0.00011376096532501661
5.65,-0.1639754866946478,0.2653618925161922,-0.020097072252065168,0.005483702718238659,0.005261200980062837,-0.007145444847593117
5.66,-0.17141149773234918,0.22207698099657294,-0.029726477815689337,-0.02508349338975896,0.00022002462921879608,-0.005611028087833318
5.67,-0.16936148249009722,0.2508281345692837,-0.04414365175639501,-0.0027526636473309118,-0.0035441768693280588,0.004141996153274787
5.68,-0.15796376104333648,0.24322176649702767,-0.040269528929227055,-0.006323869183069044,0.0019178536086544512,0.0049388771818288536
5.69,-0.1853112991287265,0.25638171689111744,-0.01964535747820149,0.005849055532200675,-0.0052799607511661,-0.003553417813272479
5.7,-0.16852259972287453,0.23700630052880417,-0.03475891084878988,0.012611087477534987,0.002086661265535703,-0.00818505803175237
5.71,-0.19804046775246065,0.2516682201474079,-0.03133023138798731,-0.0017985653823188378,-0.02537789585920555,0.008351077040817898
5.72,-0.15817772536218896,0.24676813062265043,-0.04754399365531332,0.0001485820899083192,0.011744927530637807,0.009189155453239816
5.73,-0.1780120472691156,0.24574964295346435,-0.04243083460479251,-0.016395246970978952,-0.014629912959591264,-0.011524371651635727
5.74,-0.17695730336412013,0.25863673413272326,-0.04271425455569167,-0.006313108563123344,0.011514772683501881,0.008213417675562627
5.75,-0.1937696707484039,0.27195102424663714,0.912175212418538,0.009108512050154293,0.013770641793987851,0.004455901688719093
5.76,-0.1807682828294008,0.24864573501967888,-0.07511824442697973,-0.00808311862378804,0.014686870208671932,-0.01076584274476974
5.77,-0.17809965336867392,0.22600282563534765,-0.45211753010692635,0.008975190603260299,0.010535357345648255,0.014991509091378474
5.78,-0.15550003806256452,0.25070122849682513,-0.07055014657422676,0.0015608739778257405,0.006912218769467641,-0.003026931727439875
5.79,-0.17532335425787565,0.2651878007947163,-0.055330621122983294,-0.002416519997805575,0.0033575437087739798,-0.013080168131680916
5.8,-0.16823976041215344,0.2402584084858739,-0.04226064123890892,0.011325060637613819,0.01871773153177907,-0.0009267727527342154
5.81,-0.16689526677896327,0.2520684440724054,0.4061791212723629,0.00716330655874685,-0.016618988376062252,-0.02372047913949743
5.82,-0.1842357703329538,0.23690506455075322,-0.17632595500281475,0.02046399969998277,-0.01591352823035981,-0.011856016813610034
5.83,-0.15852556596694994,0.2467667130835962,-0.5006814934124796,-0.004382935919849396,0.016587550743319673,-0.026351727835835503
5.84,-0.16474965357261795,0.23713492998935426,-0.4495820299905675,0.01091503408547673,0.002736031515326717,-0.013053683881140223
5.85,-0.15901865396549547,0.22335069205302488,-0.790024412962777,0.014239069909872587,0.012199169284833278,-0.01796344504127741
5.86,-0.18189381194517276,0.24108379512189101,0.013444906758090184,0.0011274285684209635,0.00451332391016593,-0.008300132005692315
5.87,-0.18767495980163165,0.259052162317174,0.7057508067294235,0.010578661451636993,-0.0046932141680917005,-0.03761930628817867
5.88,-0.18072802272756536,0.2182295404616081,-0.03773918369775498,0.013116191366543723,-0.012544442257661392,-0.02497732281484437
5.89,-0.17543143193128147,0.23120303796734867,-0.03615444705104693,0.0029140887793037487,-0.006018838826815611,-0.007126027106340185
5.9,-0.18995364407767615,0.23476520440221976,-0.03081564305737535,0.004537685511009465,0.003557774544729447,-0.009724535910798235
5.91,-0.1704763685947358,0.24310134508008355,-0.10438919850752586,-0.003721399690717906,-0.011902845573354009,-0.01297699011574446
5.92,-0.17907993335247357,0.22140944070498822,-0.05197277045444069,0.008997743967611702,0.013950778856666636,0.004869365477563541
5.93,-0.16527017906196134,0.22060699208561277,-0.04691297446144135,0.004255449682034532,-0.0027894035987531757,-0.006300013494966857
5.94,-0.18884620935208768,0.21563687210241322,-0.04111900269245246,0.002694094642057306,-0.0038208168347503325,-0.014955489799849564
5.95,-0.175518062801846,0.23498102981157207,-0.027670023537764616,0.002457243125228487,0.030604467351485025,0.008176671306683264
5.96,-0.19568473758492097,0.2324423692250905,0.2057290462178835,0.006807562622005615,0.013901877723937816,-0.030616430345468307
5.97,-0.17410484044597965,0.22649862231476653,-0.3830155676956045,-0.005536809319849596,-0.0008440953125589427,-0.0004948256200210319
5.98,-0.16874735275483427,0.23189816993127269,-0.030370430664706096,0.017737590767746027,0.008870862400920438,0.002240519648657055
5.99,-0.1812138800837003,0.24493046829555098,-0.02466594481524599,0.0004427404765728034,0.0031276971001472312,0.0034012033842165633
6.0,-0.17473806833701977,0.22951986783654504,-0.020705044978522737,0.01373590422249056,0.014324728252728,-0.010067704541195245
6.01,-0.19418352158753302,0.230784114614196,-0.03084191694146208,-0.005208036467525138,-0.00025002776963854186,0.0002762349897099895
6.02,-0.19814311811305055,0.2624989497420959,0.5495829528442029,0.012210032218622689,0.0009754532125341425,0.004285476741893352
6.03,-0.16977126126554148,0.22565968870583802,-0.07226528402822341,0.004582613759971443,0.009931088889322552,0.006665320831410037
6.04,-0.1842640694586409,0.2222945981248975,-0.06801437519079542,0.012939667051672984,0.025351161087400424,-0.005443733625465892
6.05,-0.17918986111436008,0.2130807652465086,-0.05189200246317089,0.02676850778679437,0.014685073748545824,-0.005377347884604911
6.06,-0.17808502097228243,0.2285398896057028,-0.0539225018899036,0.018008687247306587,0.018134186854431522,-0.009072233176004349
6.07,-0.18743532385671333,0.24445112902372798,0.13422033827189064,0.0037152337859328068,0.01568102063994891,0.012002239056048337
6.08,-0.19926912188234136,0.23528242982698486,0.017013616513335175,0.0008116550877459508,0.018264168489328547,-0.005088695200150913
6.09,-0.18107358006151575,0.2314663348582183,-0.05702244616677742,0.011120021851073194,0.014251288770195044,0.0023612414889563893
6.1,-0.19184669154906545,0.2306373612826619,-0.05263593011400181,0.01357838305401831,0.01590394369024304,0.007199441370756318
6.11,-0.20400685622102185,0.2337838153831227,-0.022005744637780395,-0.008448335057675428,0.013380002592032788,0.014184431065250604
6.12,-0.1828575661554529,0.21297474915021808,-0.4112922818753974,0.006303482529610401,-0.003998442610316775,0.004265334077730761
6.13,-0.18954881330259904,0.23410191353271448,0.017831960655888816,0.017436328745736075,0.030418327058591793,0.005566248024161946
6.14,-0.1864309636919751,0.2074331884180739,-0.03616273558776509,0.0055318499319765325,-0.011286134862610188,0.026885552965917842
6.15,-0.19547389613418903,0.21759365911349107,-0.03319176019592678,-0.005188556313610907,0.02663213543225757,0.007997233033407762
6.16,-0.177055366769973,0.21514956264505433,-0.6616803842687701,0.010616412712584062,-0.007404627773909028,0.004428830184668685
6.17,-0.19640044256265843,0.23102389539607152,-0.03481583901923833,-0.016781566944497985,0.0023941073459670887,-0.0010368530785772895
6.18,-0.22604684294658509,0.21319140992469937,-0.035011472044113624,0.011358797340949058,0.00313680348478649,0.019619015735812345
6.19,-0.21324995829384646,0.22037134123420501,-0.01838128365424844,0.019865247063338205,0.007222681597917329,0.01237796711312185
6.2,-0.2155671176027,0.21457965266185325,-0.006694717608509516,0.013926066254750898,0.0016899424038795963,-9.141966636226802e-05
6.21,-0.2115765590118556,0.21008276408793045,-0.017579021345190834,0.021966992435366393,-0.013849053375470214,0.003300794916553984
6.22,-0.20033308489690532,0.21043419393745152,-0.04084627109255824,-0.0007636624692432762,0.005771743212971844,0.0018680641808139415
6.23,-0.20853558373150832,0.20624138971991637,-0.04631922151257725,-0.021382281679165394,0.0071738292565315396,2.1924362420495946e-05
6.24,-0.20328282491686425,0.22122916296772815,-0.017267085595590637,0.001718636771217097,0.0042370208045886615,-0.0012858517485242926
6.25,-0.20212736407051268,0.20933730237793227,-0.015107158388687227,-0.004613101373408087,0.001739845475652287,-0.011544766137114412
6.26,-0.20080921300360596,0.2147241407183182,-0.004874726147306933,0.002016349843006959,0.0019534948665866653,0.0007776276631024969
6.27,-0.1957003165254103,0.21522629838996898,-0.055365388958766526,-0.004164609940627544,-0.01257956655047424,0.01901194233040164
6.28,-0.19622847448339722,0.21166965975527313,-0.04166999251036516,0.027286123668561882,-0.00011380068075827034,-0.003162304468425644
6.29,-0.19364160732909824,0.21287750282412435,-0.5655683525247475,-0.0015173198898802299,0.01151679968843586,-0.017515331089137012
6.3,-0.19038502857735892,0.2302604857824669,0.020432892936443764,0.0006516277744731038,-2.7586463003706138e-05,-0.00996609331673919
6.31,-0.17610569663822653,0.2148769192285438,-0.17407761990539405,-0.017780210795059585,-0.0007428902266300649,-0.009806666847788557
6.32,-0.19529697093439333,0.20369538666430606,-0.020353461388731547,-0.0019147219569206585,-0.0028931848571652754,-0.015858408598002777
6.33,-0.20979377539853983,0.2203456026126859,-0.019546813293612054,-0.0024561718820971996,-0.004380165150921332,0.013491352992230348
6.34,-0.21610675012711003,0.21086728669859606,-0.0020683544231190646,0.0032624726242958084,0.01493097143839987,-0.0013159873132279247
6.35,-0.21588072706926598,0.2074134567873107,-0.11712402353822673,-0.003012995568271745,0.008562746981474325,-0.006387914697804444
6.36,-0.18654480606184132,0.20924760216554847,0.004091518257187182,-0.008838249394862663,-0.001550088001781913,-0.005183599194405232
6.37,-0.18494367945986354,0.227286438524154,-0.03814822963859471,-0.003024817655934566,0.018687969550120108,-0.004570749355664731
6.38,-0.19653780397067483,0.2136779075161384,0.01807179544481568,-0.006347796198851686,-0.017636033063133248,0.0008871961831653005
6.39,-0.19364722929782213,0.2349952189645614,-0.03161271716224845,0.00699969972941716,-0.0022649220199271137,-0.00849617275042295
6.4,-0.21943322977835794,0.22031592712869308,0.014218522359581681,0.031755020183040016,0.010905825675353269,-0.0039359847951608365
6.41,-0.2009605745549299,0.23866776650545454,0.012873346883742132,-0.002227538192647552,-0.0032184051762079663,-0.00553375870558348
6.42,-0.2004036815252758,0.19454950749522024,0.057126929843875685,0.0035378370920048016,-0.007461105686675847,0.005207514420782456
6.43,-0.2110162968225226,0.23260220702612516,-0.040638962960216886,0.013331993320272139,0.0173197277472963,-0.016368847996446577
6.44,-0.19126713700939696,0.2100259758410397,-0.017200530232308896,-0.00140595188226501,-0.007402549729613754,0.002213053793720273
6.45,-0.20745440797029022,0.22215938101925464,0.13703431096242916,0.024900836741461926,0.006261046669798029,0.009007510754016245
6.46,-0.19428103617601883,0.20787060040318953,-0.32089060381105367,0.015502929361378374,0.00787877316066292,-0.010695355963599041
6.47,-0.19679804088220362,0.2026420097146417,-0.6043515193490755,0.0009021034542094145,-0.007045924949471764,-0.004054715293522957
6.48,-0.21767637801596165,0.2078303019231122,0.03408008310850481,0.0044533195142097476,-0.005327709640202185,0.004719995997007323
6.49,-0.18927841397285988,0.21202041904652671,0.022172162004466985,0.009697730261542232,-0.001563326081053299,0.002498025155029856
6.5,-0.19567915800042412,0.20989642790051904,0.023153538433706412,0.019533606126833303,0.0032561097043920144,0.01082236754373846
6.51,-0.215217272080418,0.20496629960088297,0.03308017077460941,0.00930161602541224,-0.005065087789639528,-0.007813167171007468
6.52,-0.18789664109800458,0.19636997925855423,-0.42319476491289804,-0.0016963228434013905,0.004081615685671478,0.0006785152768561615
6.53,-0.20111471046010018,0.20302068380245297,0.04053880397444899,-0.0005402220635234052,0.001297571458921932,0.010612991204302934
6.54,-0.19408837139551774,0.21786324917051056,0.029511380120860554,0.000959942033106979,0.021151084722353972,0.008806473558687819
6.55,-0.20244706049924224,0.2047312015857778,0.014335116216696106,0.02524047179872768,-0.0015781678663437711,0.007577484711182367
6.56,-0.22279806701323998,0.2157837606187008,0.06128774802939659,0.014311235512734763,0.00468270056987043,0.006791401416158615
6.57,-0.21532231311796562,0.20071394818640084,-0.021761154917915998,0.0023474649132944224,-0.0097808186968622,0.0006177309821287936
6.58,-0.20075696220047737,0.2011304414430613,0.010763350505214231,0.007991805248511282,0.00048743895604978077,0.012018678234453559
6.59,-0.18504203964553007,0.19436027752688645,0.025086342044614907,0.019800924144326392,0.02465669142422737,0.0048481769723452
6.6,-0.20428613144701468,0.20203029713587087,-0.00294498678198217,0.0100464578726609,-0.00346958698289012,-0.009156875651131026
6.61,-0.1993836163726293,0.19549554970766872,0.012340529327662294,0.015710267676936233,-0.010512487505185377,0.00875064423446098
6.62,-0.23170710316573628,0.19242635581704537,-0.025466964195754102,-0.010961656809619984,-0.012476885708900124,-0.010156594310992015
6.63,-0.20600596780929284,0.2094527528402612,-0.018335870719713612,-0.009574976619089721,-0.007511114477487446,0.004427435883013769
6.64,-0.22340452044133835,0.20549843794617023,0.8351777236022175,0.0010477362505003692,-0.004627645835769666,0.0010061656321966594
6.65,-0.20012500886338908,0.20624883785876852,-0.041648341382087735,0.016639101296800532,0.02149788342231749,-0.01594542164328221
6.66,-0.2007248390099619,0.21240610184024436,-0.018492700699673792,-0.0008330759996377449,0.030194130099228365,-0.015150972393943222
6.67,-0.22744301591681115,0.22354253169198718,1.182170140273003,0.008711609513157309,0.002105678421123235,0.007458228784678895
6.68,-0.1962005088277911,0.19815644415532935,-0.10462114226338805,-0.011310207345028182,0.0186335733343767,-0.009823769491862932
6.69,-0.19049522165649987,0.20618763393275205,-0.09657372774873654,0.018333914423640775,0.012198559117271017,0.01752834090350342
6.7,-0.2011346926596451,0.19157303891050098,-0.29887105007996634,0.006844765352400473,0.007321487633114511,-0.0007993712178841913
6.71,-0.21285228363719616,0.18267485559330793,-0.038706281394371884,0.004926388129309888,-0.018316689014606577,-0.017565142620942394
6.72,-0.21121738143666638,0.18522172221901406,-0.06509602780144824,0.011380957538265905,0.0003439975397605136,0.002840823997699122
6.73,-0.19808847796320259,0.19479706344730274,-0.4950667982488716,0.003216067710533374,-0.010171324489346635,0.0004591277721647663
6.74,-0.20847270383823824,0.20610682850164028,-0.011596699732230962,0.012756456528647687,-0.010651489059529347,0.0004564503422243623
6.75,-0.20752338948193352,0.19684630780863127,-0.03164293161668295,0.01778856384781955,0.005540684690720141,-0.01520776269050289
6.76,-0.20315585012812562,0.18634665480171236,-0.006876610140338475,0.020922876105152137,-0.010336835674216898,0.010357446386638177
6.77,-0.22980155383652257,0.22166730666945614,0.9827992617858072,0.00868312793815328,0.0039532414992765426,-0.007282861602518368
6.78,-0.20495892711995492,0.1984337795477721,0.28592096294383335,0.009285785781503728,-0.005886145733441618,0.0051703454296851865
6.79,-0.19005094509317483,0.20018457349544244,-0.0920472792592274,-0.0029087027246558275,-0.004089569549280363,0.0024341351546121725
6.8,-0.19898250538573994,0.196261953197981,-0.07807695245430236,0.006683402358217121,0.011426668279518958,-0.004297924310828557
6.81,-0.19491156846354069,0.19172788224803242,-0.06296652140032409,0.001090277388930673,0.004513403326243696,-0.008755337567131285
6.82,-0.21098804049321926,0.18886738658478308,0.07226786196560359,-0.00935380235239106,0.0006063307098400643,0.0038059892439065825
6.83,-0.2113705791184402,0.17516383076610811,-0.09169235767642905,0.01247165924224548,0.0023167932635257474,0.010762455223861721
6.84,-0.200480451717933,0.19034201120945984,-0.07897890513876489,0.021559085353435252,0.018687924274118715,0.007978791225075799
6.85,-0.21922712341071948,0.19109893750593163,-0.06488655372643487,0.022947588995298265,0.0050737760038516155,0.0032722662163424078
6.86,-0.21371384105503108,0.18797405826352812,-0.05907270896059236,-0.004962007663559783,-0.0016614047483210271,-0.006661872309382259
6.87,-0.21630357849318863,0.1764735468613082,-0.08958902673603467,-0.0008488652424133401,-0.008315908798335773,0.019470196071088946
6.88,-0.21111087687958963,0.17712841941561813,-0.06606676289381821,0.01077166810667256,0.01693729795025764,0.007926890324024057
6.89,-0.20198116579790565,0.18005384641245678,-0.07023766589277697,0.01209056261307618,0.001511968841708678,-0.00922806313723308
6.9,-0.22188574791767096,0.1842699587377768,-0.06946348678465711,0.014171972377500501,0.007909528984811011,-0.014721490010519799
6.91,-0.22010685735260382,0.18879332778663588,-0.05725487910399818,0.004465586941804253,-0.005248857039234324,-0.00027922849908609273
6.92,-0.2427394700263658,0.19056589433943094,0.9609010189271205,-0.015618592157713988,0.014148806643224841,0.0002286972363541493
6.93,-0.19382690804910366,0.18522670424765322,-0.15097422520260345,-0.003574485782197408,-0.006008157851503808,0.0003034341634984266
6.94,-0.22050412148150372,0.17976348276883147,-0.11810300467196064,-0.008696900655301222,0.01224539490064292,0.005765889480282171
6.95,-0.20405038661208802,0.1765473528682744,-0.08586574749493149,-0.009573010755426029,0.002100702199407738,0.002911249692279352
6.96,-0.20722145483212118,0.17719465129125134,-0.07145505992814472,-0.008824327661707008,-0.010658732739621875,0.003183932942241048
6.97,-0.21602559681136893,0.18854720421089238,-0.10887029483184138,-0.016124013630543207,-0.014013243574466443,0.004284540640812157
6.98,-0.20934951639876087,0.18509420042585803,-0.09410567768376449,-0.014339084152112994,0.01247829821285561,-0.0034222277221549794
6.99,-0.20705295525486,0.15589633150828086,-0.0802288191615345,0.009504564816217115,0.014616819508530214,0.000899068565960056
7.0,-0.19517514483502424,0.17574495787134942,-0.07158234281793695,0.002696994829718421,-0.010242442447913114,0.011737193873671474
7.01,-0.19722048358731628,0.18714928349557905,-0.049664393600702336,-0.02252761202810484,-0.023454488440189596,0.005919355286065444
7.02,-0.22080938173182868,0.18981343112996255,-0.03858318402036304,-0.02862265839454201,-0.019351303869965673,-0.0004994284604270724
7.03,-0.21584228085374535,0.1923924011374799,-0.37020970235556394,-0.000467222976736955,0.002491996177580766,-0.025761960413515847
7.04,-0.21808908467886615,0.16931009429251714,0.1785403777269127,-0.016580609784201204,0.01179564625447333,-0.00524879266233351
7.05,-0.19995758660032015,0.18822335787305178,-0.064668693470206,-0.002204352854252889,-2.6871652819945163e-05,0.0010994530437217491
7.06,-0.20693228229291466,0.17612198413228644,-0.07839914010183482,-0.01731998432032651,-0.00937532362620963,-0.011900783228176795
7.07,-0.20209990711443418,0.17543461291491372,-0.1104146135118023,-0.02950053439387175,-0.0028377724635364095,-0.01387979620382333
7.08,-0.20910539364035735,0.18240745324550744,-0.09505359243166443,-0.024471845325420613,-0.006045254564431725,0.006967620117777061
7.09,-0.20646366531908678,0.18551116195294318,-0.07678588439829445,-0.006073956870137855,-0.012288577224884367,-0.002165594608620258
7.1,-0.20373807021815135,0.19435814999454804,-0.26891760382101126,-0.004124342256690807,0.0007600046915578313,0.003574507527614185
7.11,-0.20988584271192756,0.18523779602099635,-0.03895819562498863,-0.002622973311504788,-0.015510278912911032,0.008676961445459132
7.12,-0.2006333942698654,0.20680323047930105,-0.09577474997828106,-0.010393709723387642,-0.01729831963321342,0.015100553245573254
7.13,-0.21272888107279672,0.19739492375533305,-0.07904808936330439,-0.00048519714120202114,0.0005595283524638187,0.0045848034660251075
7.14,-0.1841601401927544,0.18044988104280232,-0.3224202718634551,-0.007052761123165649,0.006010842541588677,0.015553568275956105
7.15,-0.22375544848634477,0.21019731610548298,-0.01896298817872879,0.01791631707082423,0.006434139150204642,0.0009706698668739028
7.16,-0.19303504196764953,0.18034130480910235,-0.026989432769169396,0.020737055741879545,-0.007765887095242828,-0.0005130716815649307
7.17,-0.20227240552525202,0.19887824194971904,0.13313228825219225,0.0008392529910215092,-0.00527257707129741,0.028556358951989026
7.18,-0.21090015716721866,0.20681930949855082,-0.06291174803992376,0.011434104337085294,-0.0031674493820673917,0.021969302264124267
7.19,-0.20762060221367445,0.19781045263316205,-0.07771158271667461,-0.011673074526354086,0.0006908166103131743,0.012649784426516233
7.2,-0.20283977729420336,0.1852707475939632,-0.04549006021200992,0.014405611479291546,-0.01054639359312004,0.009668967879584902
7.21,-0.20522687319009672,0.1890903393361668,-0.04759867156887842,-0.000250782357706608,-0.0005825956106175799,-0.0037770222751213785
7.22,-0.21701119028479685,0.20159382791879904,-0.0823186283413549,0.0024157190556651775,0.009727042831009643,0.0023360097921963424
7.23,-0.20653656579074284,0.17827459269623197,-0.05355851290419338,0.001826451404629759,-0.018332753859632317,-0.0027914186641939554
7.24,-0.21126134393234677,0.17679546853915848,-0.059283569104690306,-0.00722205716500005,-0.0013416956594746187,-0.0017454915124954853
7.25,-0.21742159726371432,0.19117375486033,-0.04470834199337726,0.013131903807018369,0.0161413516634584,0.011302970407644074
7.26,-0.1925230886232474,0.18934765839862772,-0.03600656348825038,0.0015591748495431788,-0.0007821405805663764,0.00012160100651044696
7.27,-0.18182785232057766,0.1760942147630742,-0.8722387360895257,0.0028899501472977158,-0.009777823808387976,-0.0003972946984065399
7.28,-0.2281291681155604,0.1877704675656388,-0.009261206253399068,0.00248565223865888,-0.004250987275071409,-0.018293827891534113
7.29,-0.2077564877403937,0.18537332150671706,-0.0014543346079066485,-0.002871186819367988,0.014660634066912448,0.020476379754530906
7.3,-0.2228015687753389,0.19925164445569302,0.0005910429331506314,0.002314941675005627,0.01137711664273779,-0.006189775086142154
7.31,-0.2019985364312309,0.20307099707439621,0.602128101301632,-0.01202380864996742,0.006751779141393804,-0.010689760094175103
7.32,-0.227562754305414,0.19630634311676948,0.1626599701153907,0.0032476884158072587,-0.0021434341228888133,0.016041713736024227
7.33,-0.1969200631755858,0.19932105804990569,-0.09306111830874592,0.0073067585060203055,0.026382986544607027,-0.001997116603249699
7.34,-0.19712727153298712,0.21245437036237844,-0.05782447605489571,0.01652773307857451,-0.0012069630872563672,-0.0002057773436320374
7.35,-0.23054035985496685,0.19258677578615255,-0.05448962161754318,0.0013742380915970718,0.023648903159213145,-0.0051765295790181165
7.36,-0.22137799925655893,0.17965820115467437,-0.02175480987279815,-0.012691847388502042,0.011390583464905403,0.007161549672699067
7.37,-0.219251878041463,0.19100451037423455,-0.07562634854823888,0.011068628179781544,-0.005236154527331958,-0.005576165846251486
7.38,-0.19938286340704087,0.18413546542892228,-0.05408593656162458,-0.004441512519342935,0.00020676025944685403,-0.008878083200808785
7.39,-0.20912112531916982,0.19962470554479822,-0.04949050410530368,0.012951403266208097,0.0012702938913787013,0.0007961292334541982
7.4,-0.2347924209501514,0.18156234764672455,-0.034407822232897234,0.019542811599043624,0.00201343074204032,0.011882822294546966
7.41,-0.19843724640022592,0.2012806183295114,-0.015124233546499484,0.003952907706263456,0.01616380446449979,-0.010445724162005014
7.42,-0.2071443193633745,0.1825834534689859,-0.4047820455770789,-0.00020749042770702524,-0.00548349731321019,0.0031833655534621533
7.43,-0.19345185608568435,0.19216678200554246,-0.027053528694263786,0.006106165698682305,4.455639753224959e-05,-0.0077405407100917855
7.44,-0.20222693379095338,0.17745370888038714,-0.02762517072211942,0.016962606462437208,-0.004683337241808325,0.012553749780387414
7.45,-0.22079333971902984,0.18840316914524424,-0.03466520433424553,0.013412338432428977,0.02223928457386951,0.006420182771097672
7.46,-0.2189316879997375,0.17750715578250312,-0.006525382054432313,-0.002788052822462978,0.0056593821328326365,0.004406129583301862
7.47,-0.21254049146090248,0.17021143133644637,-0.5149034741562387,-0.004888938309277968,-0.001467609252172065,-0.008709065470513998
7.48,-0.1992939654010714,0.18701287542219777,-0.020560208779113538,-0.0024010635486971486,-0.020612705084696578,-0.004198065606992158
7.49,-0.23352981163127973,0.19891859261895659,-0.00032597726889008194,-0.011683979826145592,0.007216328896365367,0.00040258312431107454
7.5,-0.2214656649878153,0.19275204303289725,0.0008756447359926272,0.008814989914359275,-0.007721914666228317,-0.003649068207451524
7.51,-0.22406207342553427,0.17171609207080554,0.015123851309867911,-0.017246555321472255,0.0033300416303970563,0.017883574566945747
7.52,-0.2171509054931075,0.191780164588746,-0.06461840025066777,0.0320383711825621,0.013980637460380828,-0.0005517710453016198
7.53,-0.2375025324243111,0.1848718975850584,0.477116938319535,0.011856789835146798,-0.010634610115117517,0.011398138879087985
7.54,-0.20478005453808443,0.178669483315207,0.045791024179652445,-0.002941705022352645,0.0036671178766931,-0.008327858230829027
7.55,-0.2201420448693548,0.18371253141039176,-0.043651525858231115,0.026570836254798752,0.0015877788066401295,0.004716566826356842
7.56,-0.20494036767945262,0.17106320324729374,-0.04102107673149746,0.024966702732794204,-0.005194916510608171,-0.004412250110217509
7.57,-0.1994809448230806,0.19541095622874446,-0.06305467751146449,-0.0016891527253270842,-0.0068062319711212575,-0.008741167316989745
7.58,-0.20914315753933166,0.17846953351853484,-0.04643412161416544,0.010166489294101326,-0.012577524699073969,0.011579105968750522
7.59,-0.20524853420514805,0.1641532086077238,-0.03209975197907899,2.9533046965296225e-05,0.009540202777930436,-0.0014266001368248159
7.6,-0.21395063624993205,0.17665337045991744,-0.02147957010933582,0.011297635197908763,0.0037508140987874065,0.009023303829693912
7.61,-0.2180400812973884,0.19968824884558078,0.002171341720057611,0.006500293262640865,-0.017397797116678652,0.0037002051515221583
7.62,-0.20498803223619166,0.16113038026017218,-0.4323088726575588,-0.00608941454725201,0.0010315898405633757,0.011319216113367432
7.63,-0.20207309061119402,0.17827157107824462,-0.027775250427181184,0.0135913535187445,0.01800251117675017,-0.016174398822148918
7.64,-0.20978699618288132,0.16863154896712584,-0.020110886464247774,0.014836662630100916,0.017436785252595406,-0.01811575793057901
7.65,-0.22382531686114135,0.1754245345315359,0.552713518917893,0.0083259289679551,0.01223235175054287,0.011486455424215966
7.66,-0.21145673018339414,0.17094210247264455,0.013081046341361532,0.0015040881436457184,0.01102191338160843,0.0035487628700541056
7.67,-0.20174358183965702,0.141622205686875,-1.1729972485224671,0.0011891016543570203,0.003920135689151273,0.011336525484240155
7.68,-0.22511473761120923,0.16464598136208936,-0.015775256789216426,-0.00023329998113130225,0.00011140446672214125,0.001895674074376269
7.69,-0.20116748127746528,0.17391680793512282,0.02160819524334464,0.012676855811525377,0.011608550659078523,-0.01822190902130054
7.7,-0.22490048773921723,0.1607139877392927,-0.005571190090827485,0.011344860700333336,0.002884719634625435,0.011400759895072941
7.71,-0.2170095987808354,0.1730144515295686,0.01608314137377866,-0.0009797785082480276,-0.007308003944015843,-0.006101066669547072
7.72,-0.2246003129871973,0.13689607753311211,-0.4084753274464809,0.004384084098380893,0.024595838031517967,-0.006757719357547717
7.73,-0.2059815120344634,0.1586978024926724,0.004763418178975588,0.009127270916684064,0.011055209483320182,-0.007803742897462896
7.74,-0.21582385078375232,0.17013667530281268,-0.0005274408537251606,-0.013555889361011335,0.005559092831226893,0.01108283370760849
7.75,-0.2357211867553614,0.1727739164993482,0.013668198929929558,0.008772432108843781,0.022341082978617227,-0.005948353461060014
7.76,-0.240342626468197,0.17156477762036265,0.023506433380291313,0.005967529823477856,0.02164433034117042,0.006014113239989192
7.77,-0.2225310436264173,0.18318735343494497,0.38643568868184686,-0.0007995825825696566,-0.0034578429325848505,-0.0059104848942703545
7.78,-0.19724251633917708,0.14790410234077206,-0.15816910288435368,0.006998460777688349,0.011007202841944563,0.0002309558880780754
7.79,-0.23801440714069888,0.17534220287355756,-0.007416957128436609,0.010277457885223534,0.0032983842750360236,-0.0050062300741451175
7.8,-0.21768716527256926,0.1665967063707116,0.0007353483778628845,0.008892351256317372,0.02077751011936578,-0.003045590841787804
7.81,-0.23597701726324968,0.16645742027101332,0.005479731502210636,-0.022248544502385253,0.00924476523340146,-0.024271986073075805
7.82,-0.2382677539708181,0.1578462708690952,0.06644132635891006,-0.00019563567428495382,0.0015004737172294909,-0.01838457381954177
7.83,-0.2080036254714431,0.1358788513435315,-0.7197281004428215,0.0005980937309220556,0.0025078075680076434,0.01193812520614944
7.84,-0.24230693188544208,0.1676850577529132,0.017038266172064536,0.013410303086335642,0.018156537572705203,-0.02987267709223193
7.85,-0.23666144135927503,0.1663180176812767,0.028950681412641118,-0.0011352005570200224,0.007042794213744949,-0.018087010395527583
7.86,-0.24818965048007807,0.16157415375278952,0.39007493197828047,0.009421696334618094,-0.009932368042831857,-0.003992639716400265
7.87,-0.21698371025937635,0.17103300684525966,0.027110060530811823,-0.004708799635149222,-0.013351614621843857,-0.028394929289330958
7.88,-0.2242744163184206,0.14860926752202733,-0.03419156925223873,0.011692105538183239,0.010184439965170855,-0.023999378594074028
7.89,-0.24275146994032862,0.17341176439104788,0.15445408474193179,0.028451132570513304,0.015592423860093662,-0.009574940955590541
7.9,-0.23188400826053926,0.18677034608740545,0.2555621452500714,0.015812771898939655,-0.0044553911884959475,0.0004936968003468097
7.91,-0.22645118494896346,0.18488712598185128,-0.01163022477128573,0.02174035472320224,-0.019849027364357327,-0.026381901820061435
7.92,-0.2245014970068525,0.16586270505807948,-0.05259052123377247,-0.001937474530168369,-0.0007620938514244701,-0.013320543626676727
7.93,-0.2027668334873099,0.14867896971309108,-1.1937720567379937,-0.0003393640131221405,-0.013523088336804044,-0.004505646868505499
7.94,-0.22695749749075836,0.16488438517690637,0.035555810412100285,0.006956752153044207,-0.011811331476099564,-0.021887212123965986
7.95,-0.23568262258346728,0.16934395239464625,0.03938443321268835,0.016595801255125157,-0.0015256282982881626,-0.0028364316547844657
7.96,-0.2237189315767331,0.1573904356432874,0.038821409975221204,0.009033165853452386,-0.02298038592205898,-0.010613123834057369
7.97,-0.22820263022094578,0.1780799651706824,-0.11410935299762161,-0.008962736326580775,0.001849906786792848,-0.004615853537982814
7.98,-0.22599766334047894,0.15804240034425338,0.0071429080082940355,0.009587645115232035,-0.0029786471885422878,-0.013816393857242707
7.99,-0.22022292907669733,0.13896063331520359,0.009006998826496517,-0.004572125034469115,-0.0003035885686644337,-0.00972422003969896
8.0,-0.23174620440869845,0.17190945093051657,0.022591153970834037,-0.005123426669549187,0.005181005121081994,-0.007970784131941312
8.01,-0.22616091795535856,0.16631155359041697,0.042340015305922254,0.0018494870735252453,-0.010210047151534857,-0.005367926924352887
8.02,-0.22609184274152047,0.16178526007289934,-0.024908406453719292,-0.014549416054544989,2.0591047455815678e-05,0.006166558745062343
8.03,-0.22768421000345732,0.1825535048574842,-0.0017225837833250504,0.006229446031604585,-0.015295659434580076,-0.00613118807083891
8.04,-0.23187708864070003,0.17960371837400618,-0.0012913096333047065,0.0019815266149047508,-0.005388639874414115,-0.00428165650330951
8.05,-0.24044126459101525,0.15324103831755748,0.024378315328711403,-0.0052479263524613275,-0.017715256608361082,0.0035876422976795345
8.06,-0.2408105187432669,0.17969827124932466,0.023482243956152248,-0.005729275365320198,-0.0013301796507293358,-0.0016697962679295358
8.07,-0.22124323342051275,0.1729264628674943,-0.02675081858763759,-0.01931909505753847,-0.013797078195740654,-0.006071310088712676
8.08,-0.23231681796774276,0.16484584735157354,0.003016786673166235,0.0037412933981298595,-0.011073330484236536,0.004511725720428989
8.09,-0.21429693745901926,0.1566792891266943,0.0035126961099427845,0.0055816027010300575,-0.005088121684907024,-0.0016193088898750702
8.1,-0.236343518998827,0.17261643227632367,0.023966232633404833,0.010262187192888485,-0.015120354551411391,0.00012353365585872394
8.11,-0.2214283619231985,0.16088477608508892,0.02450430785502017,0.00087012925551743,-0.03548083386664798,0.026773769075965667
8.12,-0.21613832255844848,0.1643107928905343,-0.01241467988233163,-0.019896652837118802,-0.01069268816845248,0.013641935998942381
8.13,-0.24078704692708514,0.17763265935474531,0.5510389339845253,0.005342186147102411,-0.0003265991883233555,0.00455572440666244
8.14,-0.2176010808691119,0.1479130747282783,-0.01870073118669416,-0.012614330341295062,-0.017672582181984794,-0.009865423890669816
8.15,-0.21653571116136944,0.16177611477581055,-0.0032219782794832928,-0.013717014131360209,0.004397331461478136,0.010809311592943275
8.16,-0.23785883739133054,0.16543217876249064,0.9729843756380976,-0.02215349653249847,-0.009336660507993555,0.009964032674099718
8.17,-0.2020228253293157,0.15081773126140702,-0.10266349562279076,-0.007794142480859432,-0.0010294287990596836,0.020038833462361773
8.18,-0.20852007502064246,0.17475835477688115,-0.08469782525590469,-0.007048829635712126,-0.020948254840592977,0.006387929924984115
8.19,-0.2278505884537751,0.16446670524801318,-0.050655547609275806,0.013239516658276305,-0.0029814740967499523,0.021642028973280294
8.2,-0.2020386523794382,0.18276040844428174,-0.040486348100266835,0.0011607300771508142,0.00036316094718453085,0.017086285689599943
8.21,-0.20829189578378585,0.16622611642611293,-0.014845024072280682,0.004038143782853509,-0.02535807780802099,0.005645975840061452
8.22,-0.17993346275071695,0.15362813636840364,-0.5033923967877236,-0.00692045844817408,-0.006004009579102848,0.011719541245470266
8.23,-0.2026142089309666,0.16881690055965934,-0.014000954805542499,-0.02238492376065751,-0.006382633498145033,0.009931837332202813
8.24,-0.22553471048798493,0.17395587002746743,-0.01708001524031678,0.021121445938682017,0.008760097659679354,-0.00011862271656944753
8.25,-0.20281737289562307,0.16904619804389343,-0.016740886568643885,0.005366538335202994,-0.007303777715826933,0.004504443744516653
8.26,-0.22288136986654486,0.18495353538901557,0.14755714177582183,-0.019296096638195922,-0.015622693892449083,0.01977972949861327
8.27,-0.22047166394788598,0.15530381236191404,-0.06211510705766121,-0.0005957495893979866,0.007649597246738344,0.009589323525670752
8.28,-0.20146635236764465,0.16389558223003575,-0.6172628059830422,0.017205125865596547,0.0036053620384320587,0.020063631859570323
8.29,-0.2225916931831108,0.16835047624247004,-0.0006701872725600275,-0.012559484642837909,-0.022230921430555283,0.004751358899075941
8.3,-0.19806265679830043,0.1560093582077523,-0.1940282459907866,0.0005170495794992458,-0.013475345323490573,0.002184960384654068
8.31,-0.1998099830059557,0.1525336577822743,0.21565989209514175,-0.01152226237281405,-0.009361052728916715,0.0067409499860625185
8.32,-0.1981391884869329,0.15643088621950194,-0.029780969909974378,-0.008320048818821016,-0.005422969728925558,0.018879802140125572
8.33,-0.1849072860517523,0.18887883195770286,-0.02437816589721597,-0.023948165606608837,-0.0015088373960874656,0.005813984189825912
8.34,-0.20391602868667258,0.15650230127762757,-0.022212889631628624,0.008397133997717535,0.0020507279822446003,-0.014859002810765888
8.35,-0.20524689942747526,0.1638700103531495,-0.00654456191916127,-0.0100869099885471,-0.009326184222994319,0.003949634524317017
8.36,-0.21314274998616536,0.17461743344951103,0.03353318799456635,-0.02874042917988004,0.0017262043597433925,-0.01866605777360064
8.37,-0.19302645113738065,0.18030702997702291,-0.045713935148765865,-0.008501547383000858,-0.001550988399176645,0.008272838689842374
8.38,-0.2014024192667502,0.16809723807246807,-0.5614932757493981,-0.019052760194731774,-0.011393438394965738,-0.0017442416277972973
8.39,-0.21369755611533806,0.16245096622171412,0.0020900090216903547,-0.00031254925867248476,0.004212651140094314,0.0014023661366931364
8.4,-0.17800379801008837,0.18510797020146605,0.025728730405409024,0.02149039985277028,0.006633867787050806,0.005838376953384587
8.41,-0.21026895654696923,0.1866358036925347,0.03020212527713957,0.01510015282799829,-0.011149535525488644,0.0012067813032112754
8.42,-0.1880822224950875,0.16253333602284442,-0.28907132035543104,0.0009915451732647254,-0.011937100175133868,0.0072034844138731385
8.43,-0.20155253537068057,0.1757194108535031,0.025354538251261785,0.0004599986192314264,0.004119927847283067,0.012496724462588699
8.44,-0.20303048254007247,0.1512283488991767,0.022824726718655527,-0.007370382492029314,0.0019076582975673883,-0.004660915093691071
8.45,-0.19324606734605976,0.1831208141080976,0.030236513709495337,0.01126094462932905,-0.004550254884745895,-0.0018061820794373577
8.46,-0.19712511243216443,0.168329485330749,0.023622661352136514,0.004177251205898139,0.007619593847858096,-0.009101162024481182
8.47,-0.20333987953126517,0.17737052476730059,-0.010646491240897804,-0.004326625971260381,-0.008358669771044335,0.007282933844292806
8.48,-0.17472579128290583,0.1647803056634144,-0.024515028950726013,0.012021554486117145,0.001503246815314866,-0.0016572907898223565
8.49,-0.20170170066832824,0.1605227289942182,0.00647572943740452,0.0052188564808559245,-0.0072135096129750395,-0.016794733391365682
8.5,-0.20817892710276956,0.16482987829311344,0.019462331588251624,-0.0016869945232040745,-0.015972212112306934,-0.004758925811956096
8.51,-0.18494338608433153,0.16445965032838317,0.08676760969034313,-0.01580013857101758,0.005289222224955268,-0.001034670556568425
8.52,-0.18099310606247168,0.18100084598491636,-0.03143783974650436,-0.0007529773565778749,-0.009607116136698792,0.006916066148173306
8.53,-0.18879542576121994,0.161457860343136,-0.01660134031091525,0.0009945189475964091,-0.015754230026739684,-0.00251542364621404
8.54,-0.1823768605726309,0.17474290108979568,-0.006411074936875789,-0.001151168911747668,0.010170506903282405,0.009596307392909065
8.55,-0.17807102927275117,0.1692626671079068,0.019681571792562955,-0.006340641145544794,0.002292900268206001,0.013794077861652519
8.56,-0.18086891808317065,0.17471606943803542,0.009738460863879557,0.00029524145017203844,-0.007507031219513051,0.0015070299059142464
8.57,-0.17965153556057378,0.16039813669958422,-0.04988188352262309,-0.010248148535380568,-0.005793463706015465,0.013735975595518242
8.58,-0.19388752292076425,0.17474392824749707,-0.037183927839014974,0.0064878458043331885,-0.015031415476997934,0.003723205752134263
8.59,-0.20102648959583208,0.1690869645435265,0.0086791589387522,5.432500671018192e-06,0.004289360956371547,0.010576954631282262
8.6,-0.18370173771320264,0.1699270084815381,-0.011368963225031222,0.007740624472885824,0.0002847676712491715,-0.029993386736485817
8.61,-0.19464466345369946,0.17305783700593266,0.013045318059075647,0.004068182939621355,-0.003059516006874874,-0.003325964767729707
8.62,-0.21800631441030954,0.1811980388391346,0.3833754908853267,-0.01410454708961124,0.007112325361413034,0.0003787002472886464
8.63,-0.19289722195152578,0.1717613467408056,-0.03165994457663792,0.014055731724231755,-0.00998523747445269,-0.0014692356061442053
8.64,-0.19397365429727892,0.18568410552322748,-0.013669536952256658,0.002999055979817618,0.008698006711477916,0.0024422640810474244
8.65,-0.19021017675302898,0.19346246486997468,-0.017392994959092155,0.002230334693260113,0.004139260655159128,0.004338108033527372
8.66,-0.18057104879512914,0.16648157507154568,0.011151446148242731,-0.004953110930600737,0.0015742550321008256,-0.0057584682093527175
8.67,-0.1868645713565313,0.1737041636238272,-0.04044851994983397,0.016151844915923273,-0.004880388134492623,0.0056029922039419235
8.68,-0.19909592620249375,0.16577709455238288,-0.039857956712250425,0.0025670772918807063,0.005758373502086075,0.0010987257267995364
8.69,-0.19472862876035663,0.15737392455719645,-0.010151066634245198,0.018935795935706042,0.01083810249273529,0.01203471704444984
8.7,-0.17273532074437944,0.15287866438745826,-0.008248705525583502,0.003870085420388392,0.00253341514643722,0.004914696703992139
8.71,-0.1903202075656308,0.17387444646330683,0.005303464287171395,-0.007893251566207366,-0.024924039228478113,-0.0033059894480346325
8.72,-0.1854077552382863,0.1635671787349717,-0.05348103673227648,0.00383262896092281,0.007488148403834839,-0.0036145871961869415
8.73,-0.1859210277045856,0.1742191281551785,-0.03370597734681432,-0.009377066297397978,-0.0036282458374838006,-0.009834176104722573
8.74,-0.19146781671184093,0.1529917769418796,-0.0008428759361868484,-0.00892532674448554,0.007396148899487687,0.0023275575231197147
8.75,-0.19795544355347133,0.1590537233871422,0.1340025914818821,0.0027376191361239803,-0.000964277891822264,0.023959351694275995
8.76,-0.194420171929927,0.1793909939061047,-0.00276563187428936,-0.012538097992119912,0.00390872529420507,0.0005477062510876743
8.77,-0.1894564734672761,0.15154232112113036,-0.022232323902084336,-0.0006475165437537607,-0.025280764894083995,-0.0067699739118572515
8.78,-0.2146772697280717,0.17987647770145587,-0.03888318846484934,-0.003932389550934723,0.004060176627224254,0.007963845547520446
8.79,-0.18511698390312292,0.17040622857069265,-0.028123515816837613,-0.005675711341166208,-0.005076631492730826,0.012582244480670083
8.8,-0.19188007337210028,0.17302211757116676,-0.016847544513613352,0.008703887426867472,0.005714445002561367,5.902144078078365e-06
8.81,-0.1818961447837978,0.16786799624907592,-0.30753291686934486,-0.013479281649887438,-0.013690367621009239,0.013506198233111466
8.82,-0.18175815941937754,0.1837578067188048,-0.03144709816832406,0.007923456829653222,0.028574832765661737,-0.00837927546569267
8.83,-0.19526288260113595,0.1730944459496808,-0.375071095525894,-0.009303853216794136,0.02082483413904407,0.007837843328006251
8.84,-0.18159011193139127,0.18554205997120182,0.25656156400606367,0.006969586039106546,0.01105400681325451,0.014750333345662454
8.85,-0.21202427870057966,0.18999089689845616,0.40008254694171436,0.012379649662783657,0.023235582906047877,-0.008301134718858513
8.86,-0.181871292138443,0.16406985809326402,-0.015217089302094707,0.009946380285460903,0.01328670335596075,0.004664939359586298
8.87,-0.21116785529938514,0.20136605049056425,0.8550180982770453,-0.004148247707733935,-0.004923099750383119,-0.01087214822987254
8.88,-0.20006893699446104,0.16097304146648836,-0.10069231757163197,0.0013771154898483498,0.006361246110694934,0.013154668856718727
8.89,-0.20981985647952878,0.17738936322585055,0.30131676114005773,0.0023096682566805336,0.013333291742937837,-0.009656185218032454
8.9,-0.2171596325027482,0.17175833774839652,-0.09861433847306927,0.009093251402409418,-0.00013223054735992008,0.016883153514135215
8.91,-0.20029952213429975,0.16903461025590075,-0.06690017811917585,-0.01466681299671312,0.011697978729999987,0.0024129597796444372
8.92,-0.20645809662043915,0.17265604102195015,0.16711235986896678,0.008690852024602541,-0.007711740927914256,-0.0029598589805973773
8.93,-0.19450449496174668,0.1494538583622226,-0.0757055635739173,-0.004920524778839374,0.041470132161927985,0.005688157348093394
8.94,-0.20300958371960226,0.14802611328632684,-0.07992676376828788,0.007659443424771617,0.039804398034152255,-0.00028416244266034644
8.95,-0.21680270687067443,0.15955553524949617,0.16534444738829887,-0.0008247146760041232,0.012255975234513416,0.008028587614569718
8.96,-0.20614849132201668,0.1555989287068963,-0.05263044916599312,0.0026282719467999784,0.007279850463258647,-0.027644929553808987
8.97,-0.20179949554986965,0.1483431114012121,-0.07882443897644656,-0.008773778392211926,0.015166417799069496,-0.029097642265300008
8.98,-0.20859997423216414,0.19496173889929425,-0.06879891889520044,0.00042843163265584433,0.013926256252184514,0.0046317984389434436
8.99,-0.21412917401444417,0.18269317247177522,-0.26040916286706434,0.008847701565686142,0.008245389814141128,-0.012288616449820546
9.0,-0.20075493080392792,0.1593621940808146,-0.03433036265205944,0.013166234297323162,0.012227270731996072,-0.0036180674957206928
9.01,-0.2020755696797215,0.15507284539097163,-0.035017922841993725,-0.006719163633451406,0.0038823741446726238,0.002670418686322503
9.02,-0.21733984389233418,0.16024718195997498,-0.0706281517118067,0.0011762302470132025,0.012336456219977678,0.001594602690455249
9.03,-0.19739191623370414,0.18827162810974502,-0.06323317049505987,-0.0185830295831989,0.024182232678761153,-0.013134886100516201
9.04,-0.20772334523481925,0.16503475307351695,-0.0566217713017329,-0.0022108770895777575,-0.0009007428201981572,-0.007627568805352311
9.05,-0.1846215808351793,0.13927931401824065,-0.8808040804962175,0.015251268426289927,0.019238852762058924,0.008002788486260274
9.06,-0.2268434800107283,0.17910054200248085,0.023009129377507674,0.0012532440517472928,0.02744407007881328,-0.0005345047525898519
9.07,-0.20430813558394764,0.14748834745448158,-0.966297506978803,0.0005101955869745015,0.011090546066948963,-0.007815433702149493
9.08,-0.2334130306648764,0.15880344011226316,0.033793035729544674,0.006517850570215571,0.005190989881310528,-0.00899119607897361
9.09,-0.2349964352454024,0.17242412750443734,0.017396126330998227,0.00205791537126906,0.010535874092245849,-0.018331251050522197
9.1,-0.234959798583407,0.16273766225316075,0.022523655154446057,0.019530533181019334,0.000952289118209812,0.013452382004876053
9.11,-0.2256267802065309,0.1506109649711108,0.032369921699305644,0.0034809909614983378,-0.0083792494311648,-0.008647665919339603
9.12,-0.206743354192736,0.18106732170276657,0.04809659962191976,0.023276998371638026,0.0019074396569688425,0.009559014861126565
9.13,-0.21105585572899332,0.16865333266775467,0.006525334711568288,0.0073844647808020344,8.204774735679583e-05,-0.018564079148005966
9.14,-0.21540333621220004,0.1729949974590572,0.0019294317127837978,-0.004021130899917923,-0.001516005852318869,0.01673083623095844
9.15,-0.22474129190518446,0.15735166458902575,0.0029000367761936015,0.01075794764023507,0.02025542308569083,0.0035802092238982307
9.16,-0.21612370551401158,0.1656509496729151,-0.4355540972530141,-0.002352503925423965,-0.0007412281198114568,0.01641363182795418
