timestamp, accel_x, accel_y, accel_z, gyro_x, gyro_y, gyro_z
0.01,-0.1,-0.1,399999.89999999997,0.003661438532432725,0.003661438532432725,0.0015757535213963727
0.02,0.0,0.0,-400000.0,0.0027288897114379432,0.0027289765517060343,0.0010430440899009202
0.03,0.0,0.0,0.0,0.0028859438134902146,0.002886054474319643,0.0012213876034368894
0.04,-0.00035918994972043255,-0.0003591842898167444,-1.3145040611561853e-08,0.002779326552282135,0.0027795064422787997,0.0011577748235411553
0.05,-0.0006269081631948073,-0.0006268827550976216,-3.9328540424321545e-08,0.0027319342998739097,0.002732156950453939,0.0011745320203829237
0.06,-0.0009100392484438325,-0.0009099846980721914,-8.16058332020475e-08,-0.014431102279506072,0.002536568316995084,0.0011621684429157996
0.07,-0.0012048672350736809,-0.0012047691362092952,0.1836913686048547,-0.01805157558358872,0.002506378472387326,0.001158991683098983
0.08,-0.001473364896102316,-0.0014732145128173015,0.1528504890302429,-0.017032701834560095,0.0024346088170993842,0.001151782025073613
0.09,-0.0017220161009121515,-3.5366820159940694e-05,0.1299565150958415,-0.017060284989932315,0.002371066072385696,0.0011450190287585348
0.1,-0.0019676088119423766,0.0017559390739830423,0.11281909923610556,-0.016788838138060917,0.0023042227049538417,0.0011372591665454457
0.11,-0.0022061511875468014,0.003441582927300199,0.09985464981099312,-0.03395187028846746,0.0018497401171654255,0.0011277232138870996
0.12,-0.0024838689530954747,0.005222501638557156,0.27410813579820115,-0.036373859898326075,0.0018784581939714346,0.0011193279017377984
0.13,-0.0027056400290602117,0.006889060628388152,0.2355061298686678,-0.03525186140522918,0.0017923338776724975,0.001110074223755803
0.14,-0.0028826685940052314,0.010269935240161525,0.20645291467502602,-0.03487062416668268,0.0017340125110218833,0.0011005915113656967
0.15,-0.0030635448611020556,0.01388259994056726,0.18432484001351668,-0.03422725132378998,0.0016695855724599036,0.0010907253806875154
0.16,-0.003236610786584658,0.017376039677390494,0.1672247344686184,-0.05139027745779967,0.00097166420289539,0.0010785223550433245
0.17,-0.0034675689606073865,0.02121309114289304,0.3384412162432682,-0.05248205633963939,0.001066670698432489,0.001068663171241861
0.18,-0.0036214883701166187,0.02458531233829039,0.296773958616825,-0.05119100256789498,0.0009752971773323866,0.001057846678597414
0.19,-0.003707066219267547,0.02968564254605464,0.2649987487757244,-0.050336189626706114,0.000930646640299696,0.0010470843784763444
0.2,-0.003804217597197084,0.03488792255758445,0.24040796070323722,-0.049270903155976986,0.0008769647377317797,0.0010360937841293748
0.21,-0.0038936868827824673,0.03995578032862533,0.2210420733561591,-0.06643392242315779,-4.918742559142746e-05,0.0010221479576273881
0.22,-0.004053342107417779,0.04576580365327613,0.390584827840712,-0.06615462962141125,0.00011727073900825056,0.0010117328912528048
0.23,-0.004123946698607599,0.050574357002350745,0.34690409204785055,-0.06467038044749061,2.809029141187145e-05,0.0010001691528060803
0.24,-0.004103721982683236,0.0571319964240129,0.3132061464938829,-0.06332456195138457,3.847682478578299e-06,0.0009888797390361008
0.25,-0.004103225909585077,0.06366252519457304,0.28677048415914896,-0.06182781114981633,-3.2378563321066125e-05,0.0009774501562290678
0.26,-0.004095816559114064,0.07004542864161899,0.26562475721192413,-0.07899082334076737,-0.0011738797440567013,0.0009622298339900092
0.27,-0.004162892588535682,0.0777021510350858,0.4338512445301035,-0.07736834612739014,-0.0009320701852294552,0.0009518764467195449
0.28,-0.00413943501604675,0.08366389721300906,0.38848109312539236,-0.0756901965570201,-0.0010130606676366177,0.0009400664431684392
0.29,-0.004003514209416868,0.09140240348960611,0.3531312594517999,-0.07386595056486452,-0.0010114909914841178,0.000928731367092142
0.3,-0.0038957070473916253,0.09899217356143242,0.32508447265655604,-0.07195282822611698,-0.001024843475257615,0.0009172928784288738
0.31,-0.0037822174264197763,0.10642509192408336,0.30236499025448893,-0.0891158335804059,-0.0023707453504140602,0.0009009826612449692
0.32,-0.003738359383523304,0.1157771503994839,0.4694261578208625,-0.08622082182651214,-0.0020506550260364657,0.0008911138058396886
0.33,-0.003614076222634491,0.12261264808925715,0.42254113946427196,-0.08436094237526844,-0.0021186056981041305,0.0008793544884084635
0.34,-0.0033563374495818054,0.13125850686124088,0.38570047948383035,-0.08208820932929595,-0.00208687267352129,0.0008682775574632158
0.35,-0.003135163004801744,0.13964551738727612,0.3561953068142998,-0.07978771047766832,-0.002072958685550464,0.0008570937875466492
0.36,-0.002909847760220797,0.14787138840893047,0.3320478681345662,-0.09695070953560646,-0.0036139229540749513,0.0008396933867469711
0.37,-0.0027393139993356656,0.15875518810910086,0.4980477802973837,-0.09287737249692127,-0.003213367045464423,0.0008306055819542202
0.38,-0.00251078595543562,0.1661999542336423,0.4497882898490957,-0.09085464728969325,-0.0032643414026931293,0.0008190613789094703
0.39,-0.0021282714144418152,0.17549372782921652,0.4115918304137267,-0.0881724493163256,-0.0031989297507495425,0.0008084310552523532
0.4,-0.001790701434601586,0.18443211819418498,0.38076075714599256,-0.08552058426875433,-0.003154173994091696,0.0007976577850131639
0.41,-0.0014507156653343917,0.19321031088308654,0.35531505698571664,-0.1026835777634044,-0.004882206876863164,0.0007790515993002827
0.42,-0.001140087619913013,0.20545880621184348,0.5203435749123742,-0.09753703986052674,-0.004399574842742758,0.0007709586191109133
0.43,-0.0008066756513981817,0.2132699495598727,0.4708392184937793,-0.09537326369397096,-0.004430368053434106,0.0007597091676610627
0.44,-0.00029905716424976844,0.22297286726905388,0.4314130186955367,-0.09232441798041317,-0.00432842991717787,0.0007496394713876157
0.45,0.00015541739164669135,0.2322381383046586,0.3993806896929186,-0.08935984686051272,-0.004249912904178988,0.0007393633405308339
0.46,0.0006105050361730367,0.24134924121975432,0.37275940751868575,-0.10652283564193388,-0.0061581505008102225,0.0007193694631560108
0.47,0.001072585433433684,0.2547977393556978,0.5368993757670637,-0.10041109190140653,-0.00559227591594922,0.0007124298811030866
0.48,0.001509229865045308,0.26275737862695503,0.486273778648183,-0.09812861330051073,-0.005600272878890161,0.000701501814099321
0.49,0.002140114790341488,0.272654759992412,0.4457384581257884,-0.0947564240436677,-0.005459496569334919,0.0006920590741642932
0.5,0.002709925016874124,0.2820463130378224,0.41262421735410726,-0.09151774596996246,-0.005344828239997445,0.00068232303968809
0.51,0.0032785543861252276,0.29129440641794885,0.3849448761883423,-0.10868073095335429,-0.007427363383245771,0.0006607278028770915
0.52,0.0039016175814725633,0.3057842569669303,0.548273967915236,-0.10170968966385362,-0.006777423138631118,0.0006550621825322336
0.53,0.004437974954781118,0.3137007696217983,0.4966456667787611,-0.09932999123055582,-0.006760486781761208,0.0006444502263042546
0.54,0.005188523480493157,0.3236033107963804,0.455117024174001,-0.0956762517807375,-0.0065789936724300205,0.0006356704777357925
0.55,0.005870403275307838,0.3329451878722037,0.4210353028710756,-0.0922003881462697,-0.006426213896879681,0.0006264904702299932
0.56,0.006549386863451221,0.34215843108776134,0.3924105138253253,-0.10936337027692453,-0.008677956130542999,0.0006030727628697565
0.57,0.0073413403299830635,0.3575392327298185,0.5550018099143017,-0.1016339479872381,-0.00794339169925522,0.0005987742104292318
0.58,0.007972386249531569,0.36524707623908637,0.5024842296563747,-0.09917684259897765,-0.007899774562027144,0.0005884551131330527
0.59,0.008837574625435054,0.37499072866523514,0.4600731537252045,-0.0952807033384258,-0.007676037630665679,0.0005803553201036047
0.6,0.009626888235660797,0.38413117641801775,0.42513332619620314,-0.09160200239658536,-0.007483537477385808,0.0005717310540610818
0.61,0.010411724445401121,0.3931612970981338,0.395670620072508,-0.10869934700922235,-0.009900099447907868,0.0005462793587061975
0.62,0.011379031512693333,0.4092920760095417,0.5575928018330956,-0.10037801050581,-0.009080554785818089,0.0005434198573652092
0.63,0.012098548138544744,0.41665070188394715,0.504293991170357,-0.09784528099057807,-0.00900882858361113,0.0005333630120666951
0.64,0.013072223534744248,0.4260889136409665,0.4611064581538926,-0.09374759645212379,-0.008741607856199898,0.0005259476266609873
0.65,0.013963246896435237,0.43489989236070586,0.42541252430083887,-0.08989725390176212,-0.00850806702856268,0.0005178699861842624
0.66,0.01484838819194932,0.44362003705618325,0.395214112955955,-0.10651710649620866,-0.011085672054573024,0.000490194632055844
0.67,0.015996223249192677,0.4603691382199307,0.5565315273159399,-0.09814507293867014,-0.010180943958869471,0.000488828768858273
0.68,0.01679706530486767,0.46726091265998637,0.5025538650826888,-0.09545249881839052,-0.010079943050067383,0.0004790101533845364
0.69,0.017872181570418037,0.47623381420544564,0.4586921104277053,-0.09121725597636238,-0.009768234503990664,0.00047227257828277673
0.7,0.018858343992065478,0.4846120311211011,0.42234223222692435,-0.08722303816816644,-0.009492571492316509,0.0004647304543044615
0.71,0.01983742395307716,0.49291085871230184,0.39150493741146875,-0.10342870838953483,-0.012227978371608758,0.0004346744559691051
0.72,0.02116980541413125,0.5101531015267918,0.5522777201960594,-0.09502769882200898,-0.011237981356203864,0.00043484163073109414
0.73,0.022044125791144897,0.5164793571892451,0.49771772808071546,-0.09220673522704718,-0.011106759902594774,0.00042522899529048966
0.74,0.02321300441393559,0.5248942555138164,0.45327642848036476,-0.08786265928656911,-0.01074975390432794,0.00041916258739614675
0.75,0.024287088133017384,0.5327495308385388,0.41636315508242205,-0.08375336493923334,-0.010431086853466089,0.0004121402557166701
0.76,0.0253531237627295,0.5405402739205867,0.3849777027653545,-0.09960001530405285,-0.013321528085533484,0.00037958290158888634
0.77,0.026873034101362315,0.5581623506943273,0.5452615087619961,-0.09118697530881908,-0.012246261992378174,0.0003813072588461015
0.78,0.027812480074502523,0.5638465947004428,0.4902093852621192,-0.08826378708443058,-0.012084056926263275,0.0003718708581568063
0.79,0.029066970622894588,0.571631599343217,0.4452769988461114,-0.08383470631897653,-0.011681105907907526,0.0003664657228624203
0.8,0.030221289705862447,0.5788935623061292,0.4078866868084674,-0.07963439856826468,-0.011318720486538621,0.0003599464110690394
0.81,0.03136684590706326,0.5861083624339458,0.37603763043847493,-0.09517179504858209,-0.014361851370478204,0.00032480498903156996
0.82,0.033076332142513994,0.6040078625091372,0.5358835712954146,-0.08675956200036092,-0.01320137723838541,0.0003280964732410144
0.83,0.03407220801065662,0.6089923795761509,0.48042306616480346,-0.08375611442776101,-0.013007579382178341,0.0003188101889154012
0.84,0.03540384242504049,0.6160933672878788,0.4350817066978152,-0.07926188283407212,-0.012558171557175505,0.0003140540838926834
0.85,0.03663038958469887,0.6227085573684565,0.39729442331548626,-0.0749907895904901,-0.012151495433432113,0.0003080207856312894
0.86,0.03784771941244165,0.6292957218433093,0.36506006825476334,-0.09026413935888111,-0.015345351955208123,0.0002702517778497358
0.87,0.03974797943512445,0.647379847880658,0.524514709354662,-0.08186226098427174,-0.014099773031691255,0.0002751065600784157
0.88,0.04079138374009257,0.6516229442158489,0.46872308974599264,-0.0787970888566075,-0.013873903895734651,0.0002659485183550039
0.89,0.042191506378103004,0.6580009584643276,0.42304849806384937,-0.07425431716732753,-0.013377642218034655,0.000261827269418778
0.9,0.0434820767793072,0.6639303711446221,0.38493801437056163,-0.06992952496017948,-0.01292622458929793,0.0002562631241997243
0.91,0.04476323969296982,0.66985203884741,0.3523904277713541,-0.08498012454716823,-0.01626918837638008,0.00021586240967204416
0.92,0.04685469680666514,0.6880365321214305,0.5114958232255162,-0.07659549897721148,-0.014938635193207088,0.0002222631508588719
0.93,0.047936637637188,0.6915101847678629,0.4554439264836674,-0.07348430773557872,-0.014680328280276803,0.0002132159316800847
0.94,0.04939651448894432,0.6971392141079391,0.4095055271946535,-0.06890693621555431,-0.014136913550031079,0.00020971356932488494
0.95,0.05074280978037589,0.7023562015884277,0.37113939029609355,-0.06454293488338443,-0.013640408665412452,0.00020460195809532712
0.96,0.052079771007137315,0.707586343922928,0.33834448668557116,-0.07940867585519404,-0.01713117753953876,0.00016160427210677717
0.97,0.05436213855100659,0.7257945767959184,0.49713825088559815,-0.07104605896104034,-0.015715796217027626,0.0001695203251078635
0.98,0.05547363006884274,0.7284824161798986,0.4408906129427237,-0.06790220020062708,-0.015424781889667703,0.00016057090244696486
0.99,0.05698454011631403,0.7333474849048616,0.39475164424374043,-0.06330195286163395,-0.014833999129979365,0.00015766963214793232
1.0,0.05837825552765328,0.7378359502675791,0.3561913178273812,-0.05891106811811529,-0.014292152955058885,0.00015299409852719226
1.01,0.05976296926127108,0.7423586499497037,0.3232090095295348,-0.07362683508660028,-0.01792971587905071,0.00010747192529635791
1.02,0.062235306984115106,0.7605208549903153,0.48172442266292137,-0.0652892475162188,-0.01642965899689845,0.00011685954123284396
1.03,0.06336744990514606,0.7624164253505761,0.42533946913891896,-0.06212409923735683,-0.016105752149603116,0.00010799904968418981
1.04,0.06492076121909651,0.7665119453519054,0.37905717388042603,-0.05751084791559811,-0.015467459552842282,0.00010567913146467773
1.05,0.0663536581987879,0.7702647827532993,0.34035823567535317,-0.0531035884546338,-0.014880098894595746,0.0001014232024717839
1.06,0.06777813700743397,0.7740727461189034,0.3072426362038527,-0.06770157482050856,-0.01866371432748993,5.34852308501095e-05
1.07,0.07043890067650639,0.7921253586500032,0.4655087792926338,-0.05939063210272988,-0.017079133835719452,6.428780992552183e-05
1.08,0.0715829490762758,0.793230613039958,0.4090390680744349,-0.0562139057488174,-0.01672222376296189,5.551120274220599e-05
1.09,0.0731701819011537,0.7965589567182629,0.3626649338173138,-0.05159596472643253,-0.016036343644514783,5.375079020457514e-05
1.1,0.07463414844129622,0.7995767001779674,0.32387731803140696,-0.04718130331500896,-0.015403367189719599,4.9897746118191956e-05
1.11,0.07609052094181418,0.8026699678544136,0.2906769887189853,-0.061691263564822754,-0.019332544046414664,-3.130136579529037e-07
1.12,0.07893760648294036,0.8205550637060965,0.4487189037050143,-0.05340744633766453,-0.01766358579766831,1.1835396469149534e-05
1.13,0.08008502297016384,0.8208790588637438,0.3922114068899418,-0.050227436837159564,-0.0172736277693881,3.141040038686509e-06
1.14,0.08169790173900848,0.8234493207920357,0.3457914442606125,-0.04561180325479597,-0.01654013907938552,1.91601201129899e-06
1.15,0.08318500223836074,0.8257389713375862,0.30695971950933654,-0.04119740620203749,-0.015861509909616333,-1.5513613475793957e-06
1.16,0.08466556080968558,0.8281237987653456,0.2737179479339602,-0.05564685892861724,-0.019935990474140727,-5.38597239114873e-05
1.17,0.08769634409758718,0.8457886124746405,0.431556818369927,-0.047389735917022606,-0.018182790044527292,-4.044674855403622e-05
1.18,0.08883884510801736,0.8453463751784129,0.37505323398079327,-0.04421352683845282,-0.01775979819910595,-4.905751257344849e-05
1.19,0.09046934105400202,0.8471732959930423,0.32862828280855183,-0.039606078306978695,-0.01697873023445882,-4.9773706177548023e-05
1.2,0.0919718573058094,0.8487473022328329,0.2897919552324879,-0.035198494114711106,-0.016254469470503408,-5.287336058105232e-05
1.21,0.09346909736009969,0.8504351864377369,0.2565470579085627,-0.04961288660069088,-0.02047421374126849,-0.00010707431419825545
1.22,0.09668047060994861,0.867831697645427,0.41420040538753256,-0.04138129982657934,-0.01863689327601715,-9.24896900778609e-05
1.23,0.0978100633150427,0.866643238911502,0.35773748916057,-0.03821493282616252,-0.01818093452152557,-0.00010101299320786818
1.24,0.09945042910156215,0.8677462692674442,0.3113435438706347,-0.03362059090322222,-0.017352361555717465,-0.00010124945762520025
1.25,0.10096089375866354,0.8686216405057179,0.2725373778034168,-0.029225406336306405,-0.016582542857864792,-0.00010400030647662802
1.26,0.10246754586284296,0.8696284732948034,0.23932301804308054,-0.043628249118111306,-0.020947713912853445,-0.00015986151478396222
1.27,0.10585595141844248,0.8867130509168653,0.39680491074278734,-0.03542046857292167,-0.019026379788644958,-0.00014420924185741508
1.28,0.10696496351588411,0.8848025080876454,0.340414820421131,-0.03226908419845259,-0.01853756846959838,-0.00015263913266467204
1.29,0.10860776109184456,0.8852049939123141,0.29408336693848014,-0.02769195041073766,-0.017661605079320433,-0.00015242761836345526
1.3,0.11011898475486726,0.8854025280669031,0.25533771520258597,-0.023313920361076636,-0.01684634979049079,-0.00015484973242232676
1.31,0.11162804069715648,0.8857478587642742,0.22218322982325844,-0.03772689839633499,-0.021357299853229973,-0.00021211414754798374
1.32,0.11518950286872054,0.9024809539748269,0.37950449968349176,-0.02954075177049237,-0.019352040993910778,-0.00019550866192262966
1.33,0.11627060632343061,0.8998758436687404,0.3232151444265696,-0.026408707133884504,-0.018830534135464466,-0.00020383753475344878
1.34,0.11790872902215158,0.8996043166625833,0.2769735018048891,-0.021852176767835907,-0.017907331053725203,-0.00020321248691586253
1.35,0.11941382191679034,0.8991479277895009,0.2383146402351599,-0.017495332910784037,-0.01704680382210784,-0.00020532725620800576
1.36,0.12091855563932732,0.8988543210172728,0.2052453694645351,-0.03193839861595824,-0.02170406078780345,-0.0002637158075632082
1.37,0.1246487111150607,0.9152002012494109,0.36241383416069084,-0.023771380474842792,-0.019614947506255934,-0.0002462812601738923
1.38,0.12569494074759005,0.9119307685351297,0.3062492239536141,-0.020662348149574343,-0.019060940492678004,-0.00025450026151022315
1.39,0.1273216304851707,0.9110143280993688,0.26012088532922917,-0.016129205944262308,-0.0180906808593452,-0.0002534988271377339
1.4,0.12881401953816762,0.9099304604182068,0.22157134583977722,-0.011796948154664158,-0.0171850856178675,-0.0002553290861779599
1.41,0.1303080037074085,0.9090229364155933,0.18860896091155155,-0.026288400533046367,-0.021989339865104086,-0.00031454341371416744
1.42,0.13420213094880382,0.9249494535668035,0.34562964859929934,-0.01813776442776568,-0.019816423132915494,-0.00029641288275742523
1.43,0.1352068986207322,0.9210481047366992,0.28961023854634504,-0.015054816050700713,-0.019230145713840605,-0.00030451229032919135
1.44,0.13681575890916314,0.9195178793786063,0.24361520694071714,-0.010547317099212451,-0.018213041628143106,-0.00030317428308712223
1.45,0.13828920089936983,0.9178349964567012,0.20519410504959978,-0.006242490806823407,-0.017262617841125327,-0.00030474439842194026
1.46,0.13976631975755327,0.9163405430956395,0.1723569300793315,-0.02079904406239662,-0.022214709209534014,-0.00036446960272268087
1.47,0.1438193676873631,0.9318189299928337,0.3292323042103362,-0.012661880378686211,-0.01995802027904958,-0.00034578424858966515
1.48,0.14477647270756677,0.9273197380121889,0.27337532959137434,-0.00960755775902074,-0.019339732826702122,-0.00035375382012632796
1.49,0.1463614780797956,0.9252084158700713,0.22753044472523243,-0.005127496285046712,-0.018276022133245785,-0.00035212164439131076
1.5,0.14781006942677505,0.9229565551394092,0.18925379823286903,-0.0008524583374161943,-0.017281041247161916,-0.00035345756482175463
1.51,0.14926452845866883,0.9209037022422928,0.1565571230344176,-0.015489302708100009,-0.022381946106774676,-0.0004133649493560402
1.52,0.15347114466292971,0.9359083921983702,0.3132873046496343,-0.007362604527682863,-0.020041496428133916,-0.0003942731214086338
1.53,0.1543747809336013,0.930846665360141,0.25760710460787095,-0.004338980534537693,-0.0193914863924457,-0.0004021024112135235
1.54,0.15593028327695602,0.9281880848832635,0.21192635767164347,0.00011225129189854945,-0.018281429653763698,-0.00040022094774405816
1.55,0.15734846693340326,0.9253984689638894,0.1738073935086959,0.0043555761739592445,-0.017242191710096975,-0.00040135021856465354
1.56,0.1587747997908867,0.9228169167635469,0.14126377426038061,-0.010375280829593825,-0.02249301008481967,-0.00046110000197790784
1.57,0.16312935838223852,0.9373253817479554,0.29784676158328693,-0.0022559996636957527,-0.02006879147451976,-0.0004417563068165312
1.58,0.1639741187148963,0.9317372873524077,0.24235508732317612,0.0007352692595332111,-0.019387370001750486,-0.00044943494932775445
1.59,0.16549485092536703,0.9285660803609597,0.19684992206947527,0.005156630704318742,-0.018231247627160496,-0.00044735140564826744
1.6,0.16687742076065132,0.9252707778012459,0.15889936928914494,0.00936670118049079,-0.017148078011731804,-0.0004483031489385569
1.61,0.16827049381121228,0.9221910725054627,0.1265189158772273,-0.005470472658945168,-0.022550020748528646,-0.0005075471275374042
1.62,0.17276712303667535,0.9361836760718445,0.2829507975476986,0.002644434415802987,-0.020042005776634193,-0.00048811146848141724
1.63,0.17354800099615708,0.930105912057555,0.2276571053627663,0.005602062604202814,-0.01932950447147499,-0.0004956294287294664
1.64,0.1750290782972022,0.926457192449992,0.18233670267875368,0.009992820510462111,-0.01812761398478727,-0.0004933931577737257
1.65,0.17637118129239931,0.9226888215219109,0.14456307020793702,0.014168436199451871,-0.017000860300368004,-0.0004941980212731484
1.66,0.17772619609435908,0.9191420718446253,0.11235371808027139,-0.0007859903037020465,-0.02255523629826685,-0.0005525821639636696
1.67,0.1823588057196096,0.9326019335675895,0.26862888063305945,0.00732754023421142,-0.01996337886919042,-0.000533218761352594
1.68,0.1830711952942321,0.9260714419817573,0.21354060677936104,0.010250572794096479,-0.01922014669107564,-0.0005405665527970576
1.69,0.18450811450708426,0.9219805342952636,0.1684121525613591,0.014610263308114308,-0.0179728001291101,-0.0005382288436470214
1.7,0.18580525102812606,0.9177720043013204,0.13082199018299434,0.018750527563293918,-0.016802829187234553,-0.0005389189210815447
1.71,0.18711774498400557,0.913789633729678,0.09878975593125006,0.003669233407347908,-0.02251103271699694,-0.0005960858810028847
1.72,0.19188005344381032,0.9267025023862452,0.25490108367165476,0.011784306071794915,-0.019835268824341192,-0.0005769622826656708
1.73,0.1925197467919637,0.9197562194440678,0.2000239008026483,0.014672083515723489,-0.01906166911638683,-0.000584131153332731
1.74,0.19390838379845787,0.9152584222493765,0.155092835996129,0.01900047844023055,-0.017769190556890732,-0.0005817449980500898
1.75,0.19515640617029373,0.9106427076255308,0.1176909781008817,0.02310476540624974,-0.01655638549110808,-0.0005823537239938221
1.76,0.1964222515683095,0.9062562378581163,0.08584019838053791,0.00788826251295222,-0.022419883648159174,-0.0006379452529850241
1.77,0.20130781283919652,0.9186103710945304,0.24177926434276742,0.016007688961288777,-0.019660132287875536,-0.0006192313438423536
1.78,0.20187099632459904,0.9112850093007108,0.1871173194345488,0.018859815677066665,-0.018856539942035944,-0.0006262134320208946
1.79,0.20320760192607534,0.9064153891358284,0.14238757142237546,0.02315689267396158,-0.017519263163937336,-0.0006238332726266103
1.8,0.20440271149717304,0.9014253322481292,0.1051773634586084,0.027224817883008276,-0.016264020670799236,-0.0006243952950998736
1.81,0.20561811311631262,0.8966661939258103,0.07351091603879922,0.011865992158382698,-0.022284341011526262,-0.0006780545489640867
1.82,0.21062034324351164,0.9084522425684138,0.22926816427570884,0.019992453602908127,-0.01944050523999369,-0.0006599215682493552
1.83,0.21110359194158324,0.9007841010200135,0.17482429736759286,0.02280876950500014,-0.018607304005152144,-0.0006667100292571112
1.84,0.2123847862899736,0.8955773131624767,0.13029849323942244,0.027074685517798937,-0.017225570286576983,-0.0006643914888900606
1.85,0.21352352914609518,0.890245452295213,0.0932819996180001,0.031106079428811242,-0.015928298002873084,-0.000664942522935849
1.86,0.21468502057607475,0.8851448196833811,0.06180150784018679,0.015598996476440866,-0.022107016418357738,-0.000716316247229372
1.87,0.21979722376837263,0.8963557152186219,0.21736642565883812,0.023735024309129063,-0.019178984543267923,-0.0006989358212577324
1.88,0.22019749460096272,0.8883805147730239,0.16314236958692163,0.026515579150409304,-0.01831656448445809,-0.00070552492697629
1.89,0.22142026035454343,0.8828706476649018,0.1188220308279142,0.030750646539092718,-0.016890720544983695,-0.0007033245291709431
1.9,0.2224995218221698,0.8772290672298677,0.08200022602267154,0.0347455305426676,-0.015551834570507028,-0.0007039011946298633
1.91,0.22360396062778842,0.8718177139743766,0.05070624535363777,0.01908538774276074,-0.021890563452796385,-0.0007526417824035635
1.92,0.22881935482256532,0.8824485580793962,0.2060675254256239,0.027233347709158966,-0.018878210345218863,-0.000736184980203386
1.93,0.2291339784629698,0.8742012985241132,0.15206408704671048,0.029978377637614642,-0.017986965462392507,-0.0007425701932131229
1.94,0.23029565280101305,0.8684217391485838,0.10794980674688759,0.03418304261928539,-0.016517361555937114,-0.0007405450730924249
1.95,0.23131265086281938,0.8625019395014366,0.07132274824073193,0.03814160712922086,-0.015137284130741894,-0.0007411847197239036
1.96,0.2323572127076179,0.8568101130379535,0.04021493637651474,0.022324684963695877,-0.02163766088546314,-0.0007869521342771908
1.97,0.23766895450139103,0.8668580683246496,0.1953606281546172,0.03048676445168621,-0.01854084940140936,-0.0007715885527407773
1.98,0.237895626176432,0.8583729051259148,0.1415778518421007,0.03319667048408527,-0.01762117541542967,-0.000777766576973898
1.99,0.23899389179529718,0.8523562229767467,0.09766945364475532,0.037371493555299735,-0.016108163579299974,-0.0007759741879670118
2.0,0.23994616952835446,0.8461890076782996,0.061236439030665224,0.041294077888024645,-0.014687320923273304,-0.0007767147109521875
2.01,0.24092834135888697,0.8402463201839794,0.030313709089568874,0.025317690484025764,-0.021350996879277738,-0.0008191782682177952
2.02,0.24632955019962544,0.849710501573675,0.18523135974390925,0.03349588855905939,-0.018169579378684863,-0.0008050751527431748
2.03,0.24646631950495101,0.8410206400799591,0.13166867304903462,0.03617121671462202,-0.017221871690826913,-0.0008110439626219508
2.04,0.24749919470767878,0.8347984877499215,0.08796535428956531,0.04031685479829971,-0.015665804154999886,-0.0008095417820978824
2.05,0.24838461184450988,0.8284138663694485,0.05172506121198239,0.04420392860646951,-0.014204624475908345,-0.0008104214308155317
2.06,0.2493021842296661,0.8222492004716919,0.020985719793031876,0.028066373548058476,-0.021033254238138732,-0.000849261437470506
2.07,0.25478596576755663,0.831130566841809,0.17566250367195835,0.03626249342037083,-0.017767074188634015,-0.0008365828433667873
2.08,0.2548312256060725,0.8222681721692382,0.12231884703339801,0.03890391631467452,-0.016791726018032294,-0.0008423416934109785
2.09,0.2557970535881082,0.8158712007966251,0.07881930521591585,0.043021106428416105,-0.015192953776973312,-0.0008411869303761582
2.1,0.2566137772952448,0.809298305639583,0.0427699164617934,0.046873252507183154,-0.01369186545112856,-0.0008422441131742711
2.11,0.2574648360097187,0.8029397333553234,0.012211786142302117,0.03057376002394044,-0.020687096737482848,-0.0008771533579618749
2.12,0.26302430450736436,0.8112409792659925,0.16663462389487904,0.03878940367724078,-0.017335990389666864,-0.0008660593571882475
2.13,0.26297677925474217,0.80223710029248,0.1135085643610978,0.04139770342205303,-0.01633339109107961,-0.0008716087740660555
2.14,0.26387421668494504,0.7956948884046966,0.07021110867810876,0.04548724770766414,-0.014692262638449187,-0.0008708580818137164
2.15,0.26462071164815026,0.788961903783747,0.03435042266630717,0.049305146033445456,-0.013151692565983149,-0.0008721311693127635
2.16,0.265403628578742,0.7824366173347919,0.003970950466225531,0.03284382771801902,-0.02031515656289196,-0.000902816266355601
2.17,0.271031928294474,0.7901620648342877,0.1581266169381479,0.0410803924648246,-0.01687895468334516,-0.0008934622034694632
2.18,0.2708906612902684,0.7810465709434666,0.10521644721706025,0.04365644475519771,-0.015849488245448767,-0.000898803962434088
2.19,0.27171866628136754,0.7743875653831722,0.062119096284618536,0.047719196742943164,-0.014166348470082362,-0.000898513158762518
2.2,0.27239368418058296,0.7675216682057062,0.02644462337997311,0.051503609636750845,-0.012586720604654381,-0.0009000402880269179
2.21,0.27310710763894797,0.7608559216198962,-0.003759023954330587,0.03488140687331,-0.01992002286973419,-0.0009262228721093245
2.22,0.2787974331006082,0.7680114121644266,0.1501161974104548,0.04314008363101894,-0.01639855251753474,-0.0009187586726202541
2.23,0.27856177356150313,0.7588129415858624,0.09742002159640606,0.045684842928431176,-0.01534259623985336,-0.0009238957602236166
2.24,0.2793195931190262,0.7520644094083373,0.05452058761790113,0.049721694935609434,-0.013617785479520687,-0.0009241195575638015
2.25,0.27992216157707306,0.7450917200357843,0.019029634295009146,0.053473453267702704,-0.01199951953019963,-0.0009259384392705394
2.26,0.2805650060909437,0.7383107804947997,-0.011001219526463046,0.03669208557193203,-0.019504231463914484,-0.0009473562141655363
2.27,0.286310621194219,0.7449035672246751,0.1425803213095378,0.044973858677103434,-0.015897317796234035,-0.0009419257478363652
2.28,0.2859802106419673,0.7356494858967721,0.09009612789157018,0.04748834441809648,-0.014815241140847986,-0.0009468623127455412
2.29,0.28666736767934964,0.728837476224875,0.04739228877781443,0.051500216001316795,-0.013049094388583635,-0.0009476540602618114
2.3,0.28719677876182237,0.7217830186911911,0.012082029421378593,0.055220206372409056,-0.011392604689761282,-0.0009498017907834602
2.31,0.2877682144214466,0.714911126766804,-0.017779188929978318,0.03828211985314257,-0.019070255591696395,-0.0009662094326948874
2.32,0.293562470294606,0.7209497673632548,0.1354955508503508,0.046587768250318996,-0.015377723684044949,-0.0009629499337044384
2.33,0.2931372285891465,0.7116661374229061,0.08322127403204149,0.04907305202528664,-0.014269887296457685,-0.0009676912273687847
2.34,0.29375350859311977,0.704815452379215,0.04071063454347268,0.053060879420496795,-0.012462733552764888,-0.0009691026668213795
2.35,0.2942093069355223,0.6977031231336639,0.0055781727326120745,0.05675003226821742,-0.0107684280962876,-0.0009716155469284966
2.36,0.29470874836484695,0.6907634611730273,-0.02411663452051016,0.039658348422622405,-0.018620497815607963,-0.0009827854660124
2.37,0.30054509995991463,0.6962577115854351,0.12883836546961902,0.04798844807940359,-0.014842174482511194,-0.0009818270113017226
2.38,0.30002521102218127,0.6869692686573003,0.07677193643473856,0.050445641736931335,-0.01370892937455279,-0.0009863793201307942
2.39,0.30057064844823955,0.6801034425829577,0.034452078914171125,0.054410368231842976,-0.011861091137551487,-0.0009884603570217412
2.4,0.30095261908641424,0.6729559870555235,-0.0005055012408661241,0.05806964682059273,-0.010129370759867671,-0.0009913737186994023
2.41,0.30137971411242637,0.6659706549649869,-0.03003713736404734,0.04090655881770884,-0.018157282943845606,-0.0009970966824223923
2.42,0.30725173548379336,0.6709313643993298,0.12258542341214707,0.04917531753103346,-0.014292999134866577,-0.0009985617289898626
2.43,0.3066376327987008,0.6616615028942618,0.0707248117493009,0.05162463565825756,-0.013134686414528772,-0.0010029297422203738
2.44,0.307112494530859,0.6547950673563285,0.02859385215714383,0.05556133065149784,-0.011246479561311733,-0.0010057292712498285
2.45,0.3074206499922849,0.6476348467399085,-0.006191818542333749,0.05919190459380298,-0.00947773757469463,-0.0010090766884064378
2.46,0.3077752671193368,0.6406237541600746,-0.03556344616129081,0.04202882018995391,-0.017682853797886918,-0.0010091605517951834
2.47,0.3136766645989164,0.6450620913245331,0.11671428662651806,0.05016072434516756,-0.013732445980208716,-0.0010131638708778083
2.48,0.3129690158248932,0.6358323417665623,0.06505754488017601,0.052619170451821747,-0.012549396130691538,-0.0010173534637165028
2.49,0.3133737890589905,0.6289791520219801,0.023113533131891018,0.05652299437090418,-0.010621129538382963,-0.001020917867126091
2.5,0.31360835688387656,0.6218269104274476,-0.011503124000000753,0.06012541503081797,-0.008815751042447393,-0.0010247317594184514
2.51,0.31389057399355824,0.6148087326884877,-0.04071786221970797,0.04296233461550804,-0.017199365122865008,-0.0010190014053290605
2.52,0.3198151992298004,0.6187364500020998,0.11120298427869102,0.05095985418411878,-0.013162676408594313,-0.0010256501084753584
2.53,0.31901489182833975,0.6095669425176808,0.05974824510701637,0.05342669251883356,-0.011955208456306782,-0.0010296700865350436
2.54,0.319350272975083,0.6027465893088113,0.017988808131974565,0.0572978208704473,-0.009987183539003608,-0.001034042469358451
2.55,0.3195116837279022,0.5956211877822248,-0.016461590242045077,0.06087218668860325,-0.008145544673168536,-0.0010383544550580182
2.56,0.31972177731570683,0.5886145202427251,-0.04552253802359019,0.04370911060676505,-0.016708877359960225,-0.0010266536205829097
2.57,0.32566363960900846,0.5920446713059135,0.10602969872763879,0.0515763718175399,-0.012585759429479964,-0.0010360466519354922
2.58,0.32477176701156685,0.5829547858082762,0.054775177495969274,0.05405103111383423,-0.011354180760435758,-0.0010399066161637
2.59,0.3250386462860799,0.5761862101749671,0.0131980088013961,0.05789013115246293,-0.009346691414388413,-0.0010451276791505477
2.6,0.3251275211149651,0.5691057789580789,-0.02108880270412783,0.06143692432159123,-0.0074691591198060596,-0.0010499679374673435
2.61,0.3252659542338221,0.5621285294843403,-0.04999896976443097,0.04427385287250615,-0.01621335366506332,-0.0010321600049952476
2.62,0.33121923051715463,0.5650752551500382,0.10117330699443983,0.05201603870257865,-0.012003668441755825,-0.001044387598489664
2.63,0.3302370774246888,0.5560833787621178,0.050117337053734445,0.054498057018416854,-0.010748274682975704,-0.001048097879358777
2.64,0.33043652492542597,0.5493846294890581,0.008720233068970629,0.0583061160931766,-0.008701607355943468,-0.0010542057118734052
2.65,0.3304536628392918,0.5423663840375959,-0.025405548953472135,0.06182607108217132,-0.00678853923206006,-0.0010596028291671323
2.66,0.3305210731310848,0.5354355939624078,-0.05416782506983964,0.044663004518985416,-0.015714657529860676,-0.0010355711586998865
2.67,0.33648011661419064,0.5379138889183288,0.0966135448265959,0.05228606695571677,-0.0114182787824034,-0.0010507144927747627
2.68,0.3354091444285334,0.529037273082622,0.04575459900735268,0.05477502234087756,-0.010139353788777655,-0.001054286057559754
2.69,0.3355423963727344,0.5224253618618668,0.004535482283074543,0.05855323528631957,-0.008053787629587127,-0.0010613159709318503
2.7,0.3354887616016655,0.515485484475775,-0.02943169295832604,0.062047244882597774,-0.006105531889550034,-0.0010672968055890888
2.71,0.3354859493864826,0.5086172155488455,-0.05804882775350961,0.04537630770084187,-0.015216642055912687,-0.001047197541613936
2.72,0.34144036100358655,0.5106353594075408,0.09218796378718253,0.052130473277457734,-0.01083074887269024,-0.0010516092579759234
2.73,0.34028740075020547,0.5018978175863609,0.04167567009716322,0.05482074520764919,-0.009529220919947816,-0.001059668853617945
2.74,0.3403559820197577,0.49534025551967176,0.000633796801707831,0.05853751516581647,-0.007404885346186718,-0.0010660876983676901
2.75,0.34023261001103755,0.48851977937358626,-0.03317939849978302,0.0620268036948778,-0.005421821621790961,-0.0010731983109618399
2.76,0.3401605095965099,0.48173583802935127,-0.061655049989894906,0.0463056863154103,-0.014718186552683473,-0.001054616905662559
2.77,0.3461066897075815,0.48332321157307234,0.08807846906933037,0.0517618476514254,-0.01024349824549161,-0.0010512977244951634
2.78,0.3448717124354683,0.474744078757805,0.03785556273783186,0.05475251692493732,-0.008919434734219954,-0.0010628524690239653
2.79,0.34487706151831166,0.46821875677061087,-0.003009174349699606,0.058381584329446005,-0.006756639807747072,-0.001069025820338703
2.8,0.3446852285171609,0.46153763232359424,-0.0366706196430755,0.06187017034168422,-0.004739087575959896,-0.0010771716819471015
2.81,0.34454492209512466,0.4548482124766551,-0.06500700163059037,0.04667293168973217,-0.014220794620886223,-0.0010570029137988229
2.82,0.35047960054601646,0.45602269262090545,0.08426702276409515,0.05136678923146019,-0.009658155654589672,-0.0010501098714120738
2.83,0.3491625977625201,0.4476110796458599,0.03427625642871135,0.0545291488522571,-0.008311579917815962,-0.0010637965088320293
2.84,0.3491063282307083,0.4411721075081587,-0.006414869524462574,0.05810036749067965,-0.0061106333034591075,-0.0010702139895395386
2.85,0.3488474465646041,0.4346316635750469,-0.0399254450655917,0.06158059333826163,-0.004058898949373697,-0.0010792605927330045
2.86,0.3486401576857645,0.42805071696516706,-0.06812461393224112,0.046501272687158327,-0.013726033663113271,-0.0010544237576364387
2.87,0.35455993979027767,0.4288293803078602,0.08072295088368264,0.050949456566139764,-0.009076184639614165,-0.0010481246691098586
2.88,0.35316138231211713,0.42059456308418675,0.03091936925159189,0.054160540440462444,-0.007707137746519206,-0.0010625747053211686
2.89,0.35304523842150104,0.41429332013454,-0.009601086823352034,0.05770348478687453,-0.005468333985101425,-0.0010697280740096736
2.9,0.35272083635518037,0.40789417050213217,-0.042961609274527746,0.061168744063659505,-0.0033827164575181944,-0.001079539465960855
2.91,0.3524479088418131,0.4014344208291831,-0.07102541083270353,0.04581773069157896,-0.013235356493265625,-0.001046986041216478
2.92,0.3583492858372228,0.4018341314138141,0.07741894069823729,0.05051797780745866,-0.008498943250695126,-0.001045432535700761
2.93,0.3568700903017197,0.3937846669277434,0.027768568386932202,0.05365997482825621,-0.007107483366238165,-0.0010592798377295019
2.94,0.35669593012321865,0.38766946743429287,-0.01258366555845214,0.05720357866935726,-0.004831105235212246,-0.0010676588945063169
2.95,0.3563076373358509,0.38141114773626583,-0.045794934706577806,0.06064794106552519,-0.0027118966402806125,-0.0010780977125541152
2.96,0.3559705217270892,0.3750837855420741,-0.0737250466542605,0.04465161294590876,-0.01275010531724275,-0.00103483017205575
2.97,0.3618498894214506,0.37512093165936733,0.07433064144635182,0.0500824523220437,-0.007927687789171498,-0.0010421293225675765
2.98,0.3602913835970556,0.3672642749830146,0.02480925051173699,0.053042428947986796,-0.006513888809586817,-0.0010540187251210102
2.99,0.36006116489850637,0.36138018991493936,-0.015376756827834015,0.05661472714354808,-0.004200208324344806,-0.0010641073748134467
3.0,0.35961070024959074,0.3552609971135823,-0.04843956823208373,0.060032701766755174,-0.0020476942626180754,-0.0010750352880619103
3.01,0.3592109419520151,0.3490755442214777,-0.07623752036778342,0.04303311165135226,-0.01227151388775699,-0.0010181240198352788
3.02,0.3650646232011834,0.3487659013989841,0.07143642950069307,0.04965375091973714,-0.007363575395203162,-0.001038312788569954
3.03,0.3634285085740707,0.34110818752264294,0.022028352546499264,0.05232345386798825,-0.005927525361660885,-0.0010469081282444552
3.04,0.3631442756396597,0.3354970060209794,-0.017993009819861072,0.05595142325795097,-0.003576804756661193,-0.001059180980308661
3.05,0.3626334358797223,0.32951395726676935,-0.05090816333819248,0.05933780750798476,-0.0013912646381040355,-0.0010704592687526288
3.06,0.36217266406068926,0.32347824133971415,-0.07857535635480417,0.04217478387078001,-0.011800709852420214,-0.0009970576702576723
3.07,0.36799693346800666,0.32283691340673215,0.06871718188250497,0.0491263671613878,-0.00680767557786012,-0.0010340800511813334
3.08,0.36628524569315424,0.31538285055532356,0.019414173912934984,0.051689561030077345,-0.005349481354653624,-0.0010380552350571785
3.09,0.3659490148189004,0.3099672985662494,-0.020440079673278433,0.05531052509188611,-0.0029619760697544993,-0.00105298260926931
3.1,0.3653796664310205,0.30412790971379167,-0.05320899116867395,0.05866308138217144,-0.000743687230122434,-0.00106447162561614
3.11,0.36485956332321656,0.2982317388378064,-0.08074639911370696,0.04150006299538386,-0.011340213227087382,-0.0009824301084876543
3.12,0.3706481857812527,0.29726117750872305,0.06609364586296351,0.048428162433702356,-0.0062605596128180235,-0.0010258991988812366
3.13,0.3688658502648545,0.2900083573997847,0.016963346958220882,0.05096954332302356,-0.004780786605115713,-0.0010287695043547157
3.14,0.3684798586883753,0.28476801266830165,-0.022724395272177844,0.05456382824778251,-0.0023566430921394183,-0.001045172378962631
3.15,0.3678538791712649,0.27908692645350897,-0.05534909430338075,0.05788792710145306,-0.00010590132282312873,-0.001057278841399606
3.16,0.367276197603128,0.2733368456286911,-0.08275857990014401,0.04072491382968312,-0.010890003217317961,-0.000968967273792907
3.17,0.37302485960233334,0.2720540239087299,0.06360457138754327,0.04758755779286355,-0.005723335303208552,-0.0010156345172414327
3.18,0.37117503619621406,0.26500995833789176,0.014664495999738847,0.0501229329463425,-0.004222273904913939,-0.0010185019193045778
3.19,0.37074151438720726,0.259952161809629,-0.02485790318473846,0.053692354876495936,-0.0017616929956064732,-0.001036012215574641
3.2,0.37006086424096196,0.25444110046901613,-0.05733992665568621,0.056992904218082965,0.000521229246151523,-0.0010488642372072049
3.21,0.36942741959200553,0.24884748733189355,-0.08462316607449338,0.039829895903283535,-0.010450494211689776,-0.000954306344555659
3.22,0.37513265340405333,0.24727266575652607,0.061256194889836024,0.04664071778647806,-0.0051968962865863244,-0.001004169963102544
3.23,0.3732178760029736,0.2404459333682496,0.01250599407143227,0.04917100164252697,-0.0036747187856773144,-0.0010070377980570752
3.24,0.3727390665825281,0.2355797261621717,-0.02685194484541853,0.052719397477575466,-0.0011779219529239613,-0.0010256569305342972
3.25,0.37200576388340956,0.2302467143122655,-0.059192429802124025,0.055999407737016754,0.001136921193042502,-0.0010392557789844785
3.26,0.37131842099635826,0.22481775111327096,-0.08635078884822178,0.03883640419997855,-0.010022377303702593,-0.0009385372305371936
3.27,0.3769769589634375,0.22296972628677025,0.05903835319287509,0.04560709028094877,-0.004681956775003802,-0.0009915723189478913
3.28,0.3749997926283388,0.21636656950541067,0.010477900005412266,0.048132499509041374,-0.003138827932252464,-0.0009944496650060532
3.29,0.3744779664371922,0.21169872426618497,-0.028716256110783434,0.05166279490620553,-0.0006060340335454864,-0.0010141748987080625
3.3,0.3736940650056475,0.20654976079725884,-0.060916152655465794,0.05492449301820417,0.0017404760778544233,-0.0010285209608010164
3.31,0.3729547276487555,0.20129170923866013,-0.08795081583912179,0.037761494061082174,-0.009606259003262027,-0.0009217441015288997
3.32,0.3785634953024086,0.19918818565223262,0.05694202169337359,0.044502223247686545,-0.00417914765691587,-0.0009779176665849609
3.33,0.37652652525865804,0.19281298908158107,0.008571324627837384,0.04702250644938832,-0.002615225504204522,-0.0009808140067904837
3.34,0.37596397136518966,0.18834847519855202,-0.03045959097391915,0.050536970030778915,-4.6651501447560976e-05,-0.001001640039297409
3.35,0.37513155155433076,0.1833879454515852,-0.06251971889525976,0.05378202438106749,0.0023312766450728955,-0.0010167320883554382
3.36,0.37434215379161806,0.1783055292658986,-0.0894317370381259,0.03661902979015559,-0.009202665960412509,-0.0009040140383564855
3.37,0.37989826528916915,0.17596332503533318,0.05495899728202858,0.043338882458596406,-0.0036890203581022253,-0.0009632854995760759
3.38,0.37780408805754284,0.16981897130730061,0.00677816419880628,0.045853455300191893,-0.00210445675490016,-0.0009662104195654425
3.39,0.37720310549493874,0.16556130006506464,-0.032089948795999135,0.049353881053722674,0.0004996818072585106,-0.0009881293713709062
3.4,0.3763242662979671,0.16079227287857378,-0.06401102425002136,0.052583556224650045,0.0029087835919911105,-0.00100396447674255
3.41,0.3754867648753102,0.15588895592166807,-0.0908013387856954,0.035420565773151405,-0.008812048306064838,-0.0008854353939326974
3.42,0.3809875185145639,0.15332413853208493,0.05308174209517347,0.0421278045995088,-0.0032120500241684287,-0.000947757113442271
3.43,0.37883873387545286,0.14741226973757904,0.005090959867004585,0.0446358447477577,-0.001606991167733933,-0.0009507200724067886
3.44,0.3782016240749808,0.1433637471093263,-0.03361470259477528,0.04812367863595693,0.0010324973866456043,-0.0009737215301388019
3.45,0.3772784758182546,0.138788193586592,-0.06539735451838169,0.05133894298143601,0.003472532486905987,-0.000990295022003974
3.46,0.3763948430723918,0.1340663847182455,-0.09206681347961876,0.034175956432172985,-0.008434782890259462,-0.0008660966153232187
3.47,0.3818377165265563,0.13129435929126743,0.05130328094793413,0.040878218664625966,-0.0027486386835056387,-0.0009314144025324997
3.48,0.3796369200381733,0.12561557252599442,0.0035028019951255374,0.04337873286647223,-0.0011232256182543375,-0.0009344245712290417
3.49,0.37896597977704616,0.12177748767161489,-0.03504068899928825,0.046855160827538045,0.0015513989038069664,-0.0009584956629220902
3.5,0.37800063725335065,0.117396445507012,-0.06668547079868858,0.05005676141555424,0.0040221306064376645,-0.0009758011379012054
3.51,0.37707285443056016,0.11285765249891,-0.09323484007950356,0.03289377852357607,-0.008071176590863925,-0.0008460853589842648
3.52,0.3824554996867402,0.10989321813870134,0.04961712484430336,0.03959820731159727,-0.0022991184986207646,-0.0009143389572548692
3.53,0.38020527571624996,0.10444721511237987,0.0020072571516038806,0.042090079111624226,-0.0006534876294992953,-0.0009174051036321913
3.54,0.37950279050513736,0.100819984067968,-0.03637427759883849,0.04555608837718895,0.002056058945009244,-0.0009425305967517
3.55,0.3784973665443836,0.09663368389922766,-0.0678816755694811,0.048744603368618175,0.0045572536755937865,-0.0009605599525231435
3.56,0.3775274175110699,0.09227863190020003,-0.09431164762929711,0.03158162388367607,-0.007721469699644368,-0.0008254878169615485
3.57,0.3828476555323146,0.08913601678983696,0.04801721022573702,0.038294957777495295,-0.0018637551005940087,-0.0008966113768719265
3.58,0.3805505707643597,0.08392172130999853,0.0005983102013829011,0.04077698175904068,-0.0001980387081687064,-0.0008997417858943069
3.59,0.3798188087100751,0.0805049993379825,-0.03762142629426535,0.04423340374488256,0.00254621568269631,-0.0009259042015729507
3.6,0.3787754081452377,0.07651296447974687,-0.06899186629993892,0.047409279179697505,0.005077642531465236,-0.0009446476922467174
3.61,0.3777652734870962,0.07234168964309617,-0.09530306662952626,0.03024630284856556,-0.007385839364580167,-0.0008043881971621772
3.62,0.38302108865684303,0.06903457244078481,0.04649784965948811,0.03697493668656327,-0.001442750983538097,-0.00087831073924742
3.63,0.3806796860805761,0.06405022515476588,-0.0007296829451775011,0.03944584331425013,0.00024292226224257403,-0.0008815131575722062
3.64,0.3799208921728692,0.06084299712050267,-0.03878772712795353,0.04289338379752794,0.003021669487693526,-0.000908692896390006
3.65,0.3788416062278088,0.05704412459284214,-0.07002157925484198,0.04605695961268405,0.0055830997350377505,-0.0009281392027937022
3.66,0.37779325773090733,0.053056050250965825,-0.09621457170538861,0.02889398618131107,-0.007064403065295105,-0.000782868318287581
3.67,0.3829827921075779,0.04959757273326204,0.04505369123108949,0.03564401249788381,-0.0010362489357309138,-0.0008595141868636765
3.68,0.3805995854710975,0.04484080982525285,-0.001982034874004057,0.03810248638660713,0.0006692555943510329,-0.0008627957858332679
3.69,0.37981597632130715,0.0418414649239196,-0.039878444191288054,0.04154174692162409,0.0034822795093240183,-0.000890971261734202
3.7,0.3787028773882817,0.038234093167055505,-0.07097602665595559,0.04469327553770463,0.006073486153472224,-0.0009111075724121866
3.71,0.3776182729031685,0.03442809360709731,-0.09705131724047078,0.02753030475318738,-0.006757222100751371,-0.0007610072919684196
3.72,0.38273982033154574,0.030830868138487233,0.043679684047504,0.034307542009642346,-0.0006443354865978751,-0.0008402966007367649
3.73,0.38031728905596474,0.02629878837812072,-0.0031637594588573847,0.036752235577400295,0.0010808773562611383,-0.0008436639530769495
3.74,0.3795110480431241,0.023505183692762444,-0.04089854591882158,0.04018372888170195,0.003927960243550562,-0.0008728117328696216
3.75,0.37836618486997153,0.02008715074275358,-0.07186012762616656,0.043323388665285546,0.006548717532624652,-0.0008936238327249712
3.76,0.37724726354326776,0.016461606104911652,-0.09781816789455888,0.02616042027765809,-0.006464305070865695,-0.0007388812728182289
3.77,0.382299263667063,0.012737720163080724,0.042371049673306516,0.0329704322584141,-0.00026704435115993807,-0.0008207303423062972
3.78,0.37983984819356387,0.008426943471917525,-0.004279600140932871,0.03539997611954877,0.001477755935447499,-0.0008241894092549111
3.79,0.3790131210457126,0.005836459444630293,-0.041852732053371255,0.03882413731709086,0.004358678106929018,-0.0008542843557308993
3.8,0.37783851429384896,0.0026051540480409585,-0.07267853487036291,0.04195204251242223,0.007008761077311304,-0.0008757567200195379
3.81,0.3766871921795367,-0.0008420012820309353,-0.09851972443186696,0.024789076276259446,-0.006185611335861147,-0.0007165632627190272
3.82,0.3816682243684699,-0.0046809818954329785,0.04112325751037815,0.0316371856350887,9.564014433284876e-05,-0.000800885049180882
3.83,0.3791743219494492,-0.008774262183486314,-0.0053340538030965945,0.03405019667449758,0.0018599086231725732,-0.0008044411756909286
3.84,0.3783292127157445,-0.011164672382157903,-0.042745457058401826,0.037467391697462965,0.004774448032218646,-0.0008354565928026259
3.85,0.37712685090673936,-0.014212264862756285,-0.0734356572706929,0.040583599927043704,0.007453632054961596,-0.0008575724847324889
3.86,0.3759450169160683,-0.017483498688797283,-0.09916034560575326,0.023420635602879977,-0.00592105443895556,-0.0006941229594852033
3.87,0.3808537941840662,-0.021426526943812974,0.03993200387242268,0.030311933604040317,0.0004437796701509582,-0.0007808274746084709
3.88,0.3783277550728492,-0.02530649672038976,-0.0063313906295547895,0.03270702138494901,0.0022273982337963766,-0.0007844853909075142
3.89,0.3774663224942465,-0.027500262431701117,-0.04358094987111372,0.03611755343070131,0.005175330099864844,-0.0008163931697374772
3.9,0.37623815831500096,-0.03036751813567662,-0.07413567924885456,0.03922207152250126,0.007883390436693918,-0.0008391347403087904
3.91,0.375027670531658,-0.03346566065154377,-0.0997441673433741,0.022059108878067724,-0.005670505479531181,-0.0006716266426796349
3.92,0.3798630334239661,-0.03750220496812062,0.03879319461219666,0.028998462726722646,0.000777478547271177,-0.0007606213632841796
3.93,0.3773071574864062,-0.04117338590958752,-0.007275671833895103,0.03137423468530167,0.0025803297718596757,-0.0007643851915145976
3.94,0.3764314117371548,-0.04317427777955629,-0.04436323070677872,0.03477834934463338,0.005561426218137641,-0.0007971559559802673
3.95,0.37517935869479935,-0.04586489572133701,-0.07478257717963288,0.03787113800701087,0.008298137588462264,-0.0008205043449776335
3.96,0.3739420410309169,-0.048793102616073725,-0.10027511859078686,0.020708176818296363,-0.005433796425231594,-0.0006491370911602725
3.97,0.3787029515445184,-0.052913142871702235,0.03770292995142199,0.02770023552478583,0.0010968804597537166,-0.0007403273579965666
3.98,0.3761194852414107,-0.056380352040363846,-0.008170763869941311,0.030055301266988417,0.0029188471585555745,-0.0007442006229703744
3.99,0.3752313850391431,-0.058192443876947664,-0.04509612530512186,0.03345319074592993,0.005932876863444023,-0.0007778038743680482
4.0,0.3739573144767583,-0.060710409899300544,-0.07538013349517314,0.03653416844771557,0.00869801302366063,-0.000801739311615631
4.01,0.37269495362757254,-0.06347212798019086,-0.10075693523958762,0.019371208499858295,-0.00521072335268722,-0.0006267135281771417
4.02,0.37738048920044065,-0.06766615035402879,0.0366574920462881,0.02642040791153511,0.0014021652358513536,-0.0007200029329160138
4.03,0.3747716229351994,-0.07093446265038494,-0.009020350866251192,0.02875338283215143,0.003243130027996607,-0.0007239885762350275
4.04,0.37387307300074113,-0.07256209570982719,-0.04578327715165642,0.032145189555580225,0.006289857891150932,-0.0007583928358518073
4.05,0.3725788114183892,-0.07491164870643274,-0.07593194840893602,0.035214235855681335,0.009083191227412146,-0.0007828947419930739
4.06,0.3712931541777209,-0.07751058351601614,-0.10119317170875775,0.01805127694369916,-0.005001049607616971,-0.0006044115906976805
4.07,0.37590250170582706,-0.08176957439154364,0.03565333450694652,0.025161844363594064,0.0016935457073048955,-0.0006997023502300547
4.08,0.37327036755296916,-0.08484428724919724,-0.009827945071094746,0.027471352741553462,0.003553390602613676,-0.0007038027471758521
4.09,0.3723632163921131,-0.08629203666288277,-0.04642815742528228,0.03085717253430613,0.006632577426180678,-0.0007389756962997941
4.1,0.3710505431020472,-0.08847763687924726,-0.07644145007645875,0.03391413102710561,0.009453878561690561,-0.0007640227824788354
4.11,0.36974329394867667,-0.09091772213309923,-0.1015872106080451,0.01675117295647441,-0.004804508876147827,-0.0005822833202352966
4.12,0.37427574394621743,-0.095233160726238,0.03468707362230816,0.02392713162038888,0.00197126465520993,-0.0006794766374573017
4.13,0.37162241367294513,-0.09811976101836706,-0.010596895272385609,0.026211809298756373,0.0038498706559595363,-0.0006836936161654007
4.14,0.3707084517023951,-0.0993924042624883,-0.04703407377348867,0.02959169427614118,0.006961272841580737,-0.0007196022329097459
4.15,0.36937909677847713,-0.10141870324886781,-0.07691190290870509,0.032636375265128914,0.009810310259373848,-0.0007451725988228009
4.16,0.3680519157667206,-0.10370407206750087,-0.10194227122894972,0.015473417852218584,-0.004620808160149606,-0.0005603771728751107
4.17,0.37250685660517036,-0.10806792193562842,0.033755481041453095,0.02271859143444252,0.002235591849859459,-0.0006593735832106962
4.18,0.36983434004822513,-0.1107720548443325,-0.01133039418732551,0.024977088162061744,0.004132838570213073,-0.000663708445723633
4.19,0.36891529799909506,-0.1118745419326217,-0.047604177204618736,0.02835104941775345,0.007276207832302029,-0.0007003191381549208
4.2,0.3675709405226435,-0.11374635431771196,-0.07734641453538416,0.03138323239278433,0.010152747514353619,-0.0007263903680157088
4.21,0.3662254414571464,-0.11588131185291672,-0.10226141650804266,0.014220275465163038,-0.004449630650323749,-0.0005387380464902477
4.22,0.37060235373864714,-0.12028601138247552,0.03285547787612586,0.02153829271375635,0.0024868211910129357,-0.0006394377494927843
4.23,0.3679125974787034,-0.12281345105336072,-0.012031484217800426,0.023769274203737478,0.0044025864947237515,-0.0006438912943460398
4.24,0.36699014509755656,-0.12375087649729721,-0.04814146819853704,0.027137284352913092,0.007577669590444131,-0.0006811700294722818
4.25,0.3656324116785292,-0.12547315329847208,-0.07774794198667223,0.03015672032107125,0.010481474673855597,-0.000707719285498095
4.26,0.36427016054885186,-0.12746215091397062,-0.10254755881788924,0.012993763717688595,-0.0042906384917108485,-0.0005174073233600364
4.27,0.36856861162393173,-0.1319006027600267,0.031984129762463454,0.02038806327321102,0.002725267954105144,-0.000619710498831015
4.28,0.3658634979442077,-0.13425722483084712,-0.012703062566288281,0.02259021301845692,0.004659427611010152,-0.0006242830448709816
4.29,0.3649392429672105,-0.13503480118082223,-0.04864880150279305,0.025952208633432703,0.007865966087318427,-0.0006621954731060683
4.3,0.36356970651629794,-0.13661260455322122,-0.07811929652490335,0.028958622336102247,0.01079679653821431,-0.000689199586186002
4.31,0.3621922201979544,-0.138460215461933,-0.10280346486979397,0.011795665907362224,-0.004143475437132314,-0.0004964229265656087
4.32,0.36641185885200045,-0.14292577503738357,0.031138642846428866,0.019269501327309712,0.0029512661470375142,-0.00060023003472812
4.33,0.3636932049455588,-0.14511753084534007,-0.013347885392533954,0.021441522202907553,0.004903693508746298,-0.0006049214458965875
4.34,0.36276869233908826,-0.1457405637239617,-0.04912889057351322,0.02479740616455485,0.00814142346678056,-0.000643433020672479
4.35,0.36138887110848117,-0.1471790433527076,-0.07846314762360862,0.027790498201500306,0.011099035772449143,-0.0006708685779276723
4.36,0.3599976162904639,-0.14888993952411056,-0.10303176008363835,0.010627541809234996,-0.004007769384948715,-0.0004758193886661347
4.37,0.3641381675723032,-0.15337640277834907,0.03031636008898886,0.01818398679949097,0.0031651659813220333,-0.0005810314540305793
4.38,0.3614077250380099,-0.15540929509505474,-0.013968571046518719,0.020324602474648994,0.005135731676407169,-0.0005858411648788547
4.39,0.36048443647462847,-0.15588315990910928,-0.04958431084389758,0.023674246253433274,0.008404383553432886,-0.0006249172571284129
4.4,0.3590957933097272,-0.15718753064497548,-0.07878202712419125,0.026653695126726197,0.011388530433130926,-0.0006527606861175914
4.41,0.3576921856773829,-0.1587664610980255,-0.10323493217612167,0.009490738644080818,-0.0038831347982876303,-0.00045562793126273675
4.42,0.3617534459010585,-0.1632680514962459,0.029514758850268663,0.017132692485110165,0.0033673314605481303,-0.0005621468099202998
4.43,0.3590129004682474,-0.16514811203016677,-0.01456760340801111,0.019240648662393667,0.005355903109437881,-0.0005670738516396613
4.44,0.35809225401362,-0.1654782319349124,-0.05001750292166207,0.022583894536601496,0.008655201478484018,-0.0006066798589210397
4.45,0.3566961958645365,-0.16665375293101192,-0.07907833182940749,0.025549358621930182,0.011665631613226514,-0.0006349075082841491
4.46,0.3552815994578573,-0.16810552335932982,-0.10341533439373052,0.008386401933170133,-0.0037691750036926847,-0.00043587655414556795
4.47,0.359263431413126,-0.1726168782756332,0.028731448047381036,0.016116595080232946,0.003558138088334757,-0.0005436051843191625
4.48,0.3565144028794265,-0.17435014653344183,-0.015147334195830808,0.018190660576431084,0.005564580038016277,-0.0005486482110950128
4.49,0.35559775292126616,-0.17454197200450494,-0.050430775395682303,0.021527323791060513,0.008894243425250456,-0.0005887496611732664
4.5,0.354195630514198,-0.1755939271941287,-0.07935432673633613,0.02447844324048274,0.011930701206798398,-0.0006173378775423566
4.51,0.35277135733480236,-0.17692338076358283,-0.10357518839043678,0.007315486240732614,-0.003665484367879628,-0.0004165901327975997
4.52,0.3566736856575048,-0.18143953734117702,0.02796416605832519,0.015136486072432743,0.0037379706971916084,-0.0005254327685700539
4.53,0.3539177280331707,-0.18303204118552685,-0.01570998556132963,0.017175453753035128,0.005762143775732524,-0.0005305900840848578
4.54,0.35300636539670194,-0.18309103083424816,-0.050826307287366035,0.020505324620199123,0.00912188449555932,-0.0005711527328283887
4.55,0.35159947313623263,-0.18402471066103487,-0.07961214745222378,0.023441723198183814,0.012184109794719698,-0.0006000779338683995
4.56,0.3501667829208799,-0.18523671015735488,-0.10371658696328723,0.006278765793108123,-0.0035716503519540727,-0.00039779052310005554
4.57,0.3539895896609302,-0.18975309077795544,0.027210778625885723,0.014192982480053405,0.003907221399014157,-0.0005076529513237245
4.58,0.35122819151078843,-0.1912108282553504,-0.016257652255546873,0.01619567005766043,0.005948982689822499,-0.00051292253525028
4.59,0.35032334375628693,-0.1911424311007437,-0.05120615028886277,0.019518515997784376,0.009338506697603355,-0.0005539124587388935
4.6,0.34891291979644024,-0.19196311559888102,-0.07985380282349297,0.0224398028510327,0.012426234651852646,-0.0005831512022120312
4.61,0.34747301997928304,-0.19306252672102175,-0.10384149664588449,0.005276844956467505,-0.0034872554431200076,-0.0003794966721518059
4.62,0.35121634035295557,-0.19757492408345456,0.026469276761531546,0.013286537420934283,0.004066287657261304,-0.0004902864126228178
4.63,0.34845092533153377,-0.19890384678866724,-0.016792303760837513,0.015251788126773462,0.006125490292913321,-0.0004956659469641857
4.64,0.34755375722062,-0.19871348577282788,-0.0515722313920719,0.018567355648972397,0.009544497055135225,-0.0005370496277419337
4.65,0.34614098370022717,-0.1994264288818215,-0.08008117724500607,0.021473127009736515,0.012657457875492046,-0.0005665786765179371
4.66,0.34469502953049513,-0.20041810474324961,-0.10395176023081376,0.0043906561502198085,-0.0034118789645188555,-0.00036172473417937036
4.67,0.34835894789919664,-0.20492266673777237,0.025737774791423362,0.012409527869618788,0.004215570261141215,-0.0004733512232323583
4.68,0.3455908754190773,-0.20612866447500267,-0.017315786635663244,0.01435578056809214,0.00629206297790843,-0.0004788392288823649
4.69,0.3447024766645157,-0.20582958020654019,-0.051926520292511213,0.017657772638303777,0.009740245431384218,-0.0005205835544121856
4.7,0.3432884816434445,-0.20643920121798942,-0.08029617603710903,0.020547802064024775,0.01287816413276157,-0.0005503807862045581
4.71,0.3418375748176494,-0.20732908198262123,-0.10404926250373592,0.0035994443192814904,-0.0033450990160490655,-0.00034448682288644607
4.72,0.3454222199406054,-0.2118229585157394,0.025014335527373532,0.011568508510076177,0.0043554718208141914,-0.00045686325810800546
4.73,0.34265278527456644,-0.2129123762362184,-0.017830008012253984,0.013507217490346023,0.006449099113068965,-0.00046245771265192623
4.74,0.3417741877753677,-0.21251566488800222,-0.05227084958647765,0.01679056137399988,0.009926143418773802,-0.0005045308375414109
4.75,0.3403600433271592,-0.21302693150815344,-0.08050060056774555,0.019663929190023813,0.01308873973833234,-0.0005345747421862565
4.76,0.33890523426061137,-0.21382083875032265,-0.10413576376322453,0.0028513984200864498,-0.0032864935451208162,-0.00032779189451086265
4.77,0.3424107764549156,-0.2183016677292926,0.024297156393515706,0.010768083342084712,0.004486395519288611,-0.0004408352486503581
4.78,0.33964121255891655,-0.21928072244215002,-0.01833673167084271,0.012697932831536413,0.006596997575462534,-0.00044653312528411613
4.79,0.33877339615573376,-0.21879231057120307,-0.05260683639818353,0.015961209502931777,0.010102583021721123,-0.0004889044204576625
4.8,0.33736011913809705,-0.2192105628751051,-0.08069604000127129,0.018816686759071725,0.013289571321417577,-0.0005191736680639087
4.81,0.3359024085636264,-0.219913460517418,-0.1042127994210773,0.002142149158807713,-0.00323564177329487,-0.00031164670849343564
4.82,0.3393290571351848,-0.2243787707190137,0.02358467245500151,0.010004267238663428,0.004608743542964111,-0.00042527679230237723
4.83,0.33656053632036276,-0.22525309661958204,-0.018837476858379887,0.011924298271705241,0.006736155961493645,-0.00043107476483817195
4.84,0.3357044220342331,-0.22467839740691886,-0.05293595130240192,0.015166412847354097,0.010269954974187688,-0.0004737143611242586
4.85,0.33429297623843723,-0.22500851772022656,-0.08088391911797999,0.018003067119851113,0.013481044090919075,-0.0005041880136327717
4.86,0.33283331514200043,-0.22562495989753018,-0.10428175027499265,0.0014688282668701147,-0.00319212580600111,-0.00029605589560897266
4.87,0.3361813149460602,-0.23007225877336168,0.022875474101624604,0.00927449022563556,0.004722915594175561,-0.0004101951406443354
4.88,0.3334149497580263,-0.23084709511955737,-0.019333611795957495,0.011183973051884129,0.006866969264047099,-0.0004160896531870726
4.89,0.3325714006430225,-0.23019116251354887,-0.05325951804024953,0.014404048539696873,0.01042864735930576,-0.0004589684207926794
4.9,0.33116269744670745,-0.23043771886221975,-0.08106551984354837,0.01722114311767503,0.013663540502297431,-0.0004896259525682024
4.91,0.3297019876136176,-0.2309719794713061,-0.10434385753654851,0.0008295594794570788,-0.0031555318993751365,-0.00028102218774754344
4.92,0.3329716157929319,-0.23539884813850165,0.022168290314539263,0.008577087392444383,0.004829307624564776,-0.0003955955162566208
4.93,0.3302084601086719,-0.23607915192513929,-0.019826369381803488,0.010475442594349023,0.006989828625590827,-0.00040158284261895865
4.94,0.329378282277748,-0.2353467825688682,-0.05357872833400279,0.013672746853236712,0.010579044379377898,-0.00044467239098128566
4.95,0.32797318148869437,-0.23551412080990985,-0.08124199535330945,0.016469673461189365,0.013837439046764486,-0.00047549371571437997
4.96,0.32651227624747037,-0.23597027682065175,-0.10440023718416569,0.00022309400505292343,-0.0031254516012812813,-0.00026654658625260657
4.97,0.32970383919472823,-0.24037442942770326,0.02146197569885544,0.007910962676032154,0.004928310692486745,-0.0003814813550765797
4.98,0.32694488948603606,-0.24096494739112018,-0.020316859909996765,0.009797708354989049,0.007105120214595724,-0.0003875576435660974
4.99,0.32612883330784825,-0.24016074546828747,-0.05389465435712282,0.012971605189009593,0.010721525248077582,-0.0004308303353367166
5.0,0.32472814413875284,-0.24025304742991693,-0.08141438193831618,0.015747839022167226,0.014003113161561125,-0.00046179583473429225
5.01,0.3232678492359753,-0.24063503127891295,-0.1044518906923031,-0.0003514326600716315,-0.0031014827757368645,-0.0002526285011378659
5.02,0.32638167978937815,-0.24501435039958608,0.020755499079427864,0.007275364797952152,0.005020309936769,-0.00036785449123634775
5.03,0.3236278764928713,-0.24551966379959822,-0.02080608169308107,0.009150081404944973,0.0072132242167900415,-0.00037401579905809037
5.04,0.32282663790184074,-0.24464808122459658,-0.054208258717380886,0.01229999798120896,0.010856463196390428,-0.0004174447717958853
5.05,0.32143112008498065,-0.2446694003577221,-0.08158360891741268,0.01505506783241103,0.014160930252765408,-0.00044853532410209685
5.06,0.3199721946867129,-0.24498103167402974,-0.10449971515669176,-0.0008946618285690169,-0.0030021329958769653,-0.0002392658696074367
5.07,0.32300864952095054,-0.24933358746537237,0.020047934867761796,0.0066697392258803926,0.005097701003030973,-0.0003547153022111766
5.08,0.32026087852798923,-0.24975813904148936,-0.02129492987279491,0.00853204653404183,0.007326249130920705,-0.0003609560998127328
5.09,0.3194671863937515,-0.24882349307198126,-0.05452014399054406,0.01165745196743404,0.010989889522697313,-0.0004045151064900863
5.1,0.31807834992125805,-0.24877777557108516,-0.08175028529677775,0.014390920726695506,0.01431710578218245,-0.00043571093281811194
5.11,0.3166203847593252,-0.24902277827365538,-0.10454426156769614,-0.0014071167185467689,-0.0028459538356639183,-0.00022645516498239648
5.12,0.3195791795596037,-0.25334683618538634,0.019338717685002393,0.006093631641510311,0.005167077667865949,-0.00034206063573778743
5.13,0.3168377374107578,-0.25369494464300146,-0.021783933377150788,0.00794317339235539,0.007444271837442579,-0.0003483757023107076
5.14,0.31604614926905583,-0.2527014388320481,-0.054830884508305644,0.011043564607095489,0.011122955051473695,-0.0003920381685095186
5.15,0.3146648720120382,-0.2525925338758839,-0.08191494128340082,0.013755016373487026,0.01447210136012022,-0.00042331957387629145
5.16,0.31320746004759314,-0.2527745466007758,-0.10458604016605477,-0.0018892710255967605,-0.0026909548898386114,-0.00021419069247264
5.17,0.31608815083128405,-0.25706856898288777,0.018627314517516425,0.00554662514480336,0.005234133210010133,-0.00032988551115157097
5.18,0.3133533057964044,-0.25734443719116484,-0.022273605857492385,0.007383059114195154,0.007558568020219593,-0.0003362705201943125
5.19,0.31256405422119826,-0.25629617073974487,-0.05514115915872253,0.010457951604660327,0.011251067238380558,-0.00038001004370048037
5.2,0.31119065601270535,-0.25612783566053565,-0.08207820830108403,0.013146983357759538,0.014620983276579532,-0.00041135817835164504
5.21,0.30973423532199007,-0.2562504163350354,-0.10462568443614373,-0.0023415923833848273,-0.002542069852828394,-0.0002024647332444223
5.22,0.3125368578960064,-0.2605130594091065,0.01791305926701625,0.005028300744206234,0.005295086105553766,-0.0003181845128229954
5.23,0.30980935124436115,-0.260720777811585,-0.022764604601377414,0.0068512926283852,0.007665594224153888,-0.00032463521320356996
5.24,0.30902314079650495,-0.2596217436057202,-0.055451613327761606,0.009900214659711236,0.011371097937843157,-0.0003684263412000726
5.25,0.3076583006045297,-0.25939764564775203,-0.08224071780915665,0.012566431160848138,0.01476095889461548,-0.00039982308542104816
5.26,0.3062036451995098,-0.25946427127720995,-0.10466381201723607,-0.002764568475535205,-0.002402091346627628,-0.00019126831773402404
5.27,0.3089285976631828,-0.26369437817308494,0.017195308501527506,0.004538213866566625,0.005347812412896452,-0.0003069514521720232
5.28,0.30620942568226894,-0.2638379246011624,-0.02325755847465416,0.006347433550254364,0.0077634082603960115,-0.0003134636882267082
5.29,0.30542721801030126,-0.2626920085901929,-0.05576285857955554,0.00936992261256592,0.01148137514201765,-0.00035728207396996394
5.3,0.30407180829250535,-0.2624157234887292,-0.08240306343054726,0.012012933361170462,0.014890579713832433,-0.00038871011904529284
5.31,0.30261986946999997,-0.26242978825585794,-0.1047009988752734,-0.003158721939962429,-0.0022724678572624123,-0.00018059152854402324
5.32,0.30526778387329756,-0.266626380049928,0.01647346671518335,0.004075881199565129,0.00539131264455974,-0.0002961794932421415
5.33,0.30255806181322953,-0.26670961797314874,-0.023753045219621072,0.0058710006319765366,0.00785112710193507,-0.00030274921076246873
5.34,0.3017809413430328,-0.2655205971979768,-0.05607545251251622,0.008866601376535044,0.011581192850084982,-0.00034657170423887116
5.35,0.3004359164382464,-0.2651956065680139,-0.08256578301057971,0.011486018929915714,0.015009284974277318,-0.0003780145950633021
5.36,0.2989877182990597,-0.26516041886637254,-0.10473776306696436,-0.0035246178295833177,-0.0021537601308778114,-0.0001704237284916338
5.37,0.30155937251308274,-0.26932268437640516,0.015747000929877686,0.003640774382500791,0.005425324440206029,-0.00028586123840670913
5.38,0.2988602456532874,-0.26934936047773306,-0.024251578878420332,0.005421466509474239,0.00792856032119203,-0.00029248448752617554
5.39,0.2980893316673061,-0.2681209003974061,-0.0563898878880309,0.008389729656208577,0.011670473991200171,-0.00033628917962321434
5.4,0.2967556552135875,-0.2677505886339304,-0.08272934874042903,0.010985168840639303,0.015117089413258003,-0.00036773133193878646
5.41,0.2953122269122588,-0.26766936758626514,-0.10477455667512459,-0.003862866202506865,-0.002045953416915913,-0.0001607537194903853
5.42,0.29780848430416285,-0.27179665264220887,0.015015447871746801,0.003232318167121364,0.005450057757376457,-0.00027598879157713925
5.43,0.29512107126983267,-0.27177039408243786,-0.024753603611316066,0.0049982565468508,0.007995959666868755,-0.00028266172755753643
5.44,0.29435746163652965,-0.27050604579414994,-0.05670658779877158,0.007938738419062535,0.011749540334531579,-0.00032642796311914673
5.45,0.29303606065678167,-0.27009369677699624,-0.08289416321360932,0.01050981611383538,0.01521437031252785,-0.00035785466386454434
5.46,0.29159839358250395,-0.26996956885128043,-0.10481176239807155,-0.0041741215799522835,-0.001948670420935118,-0.00015156985441279548
5.47,0.294020162074915,-0.27406136509533496,0.014278416315960385,0.00284989144261503,0.005466014675411537,-0.00026655380629664327
5.48,0.291345519980446,-0.2739856769018445,-0.025259492275608864,0.004600750294305367,0.008053848770003846,-0.00027327268902203677
5.49,0.290590256390999,-0.2726888744852829,-0.05702590449629952,0.007513012749244537,0.011818956212193825,-0.0003169810593398056
5.5,0.28928199345745753,-0.2722376685682093,-0.08306055921281086,0.010059348029759503,0.015301723028750535,-0.0003483784559668771
5.51,0.28785101537032176,-0.2720736641670385,-0.10484969401147737,-0.004459080442692586,-0.0018613157741515871,-0.00014286011754316351
5.52,0.2901992198367509,-0.2761295979780698,0.013535586340651662,0.0024928300436039335,0.005473867524901812,-0.0002575475241979585
5.53,0.2875383241995877,-0.2760078607533245,-0.025769547598031295,0.004228284560995941,0.008102908074981811,-0.000264308716979153
5.54,0.28679237197515306,-0.27468191893476046,-0.05734812120294919,0.007111895161545095,0.011879423097835322,-0.00030794103893176357
5.55,0.2854980295374787,-0.2741949300943958,-0.08322880180600123,0.009633109658279395,0.015379863693419297,-0.00033929612169631394
5.56,0.28407459014001546,-0.2739939806861713,-0.10488859864210553,-0.004718477551835501,-0.0017831733335253713,-0.0001346121845293561
5.57,0.2863501540417701,-0.2780138021396539,0.012786706520273583,0.002160430615894401,0.005474377158320844,-0.0002489608077571498
5.58,0.283703888528386,-0.2778492701427382,-0.026284005123500265,0.003880157433585834,0.008143897769184442,-0.00025576077587416847
5.59,0.2829681261484751,-0.2764973823232708,-0.057673455629014825,0.0067346897581225165,0.011931709162837447,-0.0002993000626126753
5.6,0.28168839901532294,-0.2759775759031413,-0.08339909182808469,0.00923040813626074,0.015449564342203648,-0.0003306006425558091
5.61,0.2802732631135285,-0.2757425114907619,-0.10492866074685026,-0.004953081618804166,-0.0017134710524167162,-0.00012681346935323974
5.62,0.2824770964737766,-0.27972608347859307,0.012031590088668054,0.0018519550560046599,0.005468338789145211,-0.0002407841700694466
5.63,0.2798462492448195,-0.2795218832929436,-0.026803037513900563,0.003555632794383266,0.00817760680181021,-0.00024761947933737077
5.64,0.2791214642794415,-0.27814712010076903,-0.058002064022844024,0.006380666816931942,0.011976602834186171,-0.0002910499058145137
5.65,0.2778569574246603,-0.2775973508928331,-0.08357157035732143,0.00885051731385727,0.015511610285677341,-0.00032228459025256963
5.66,0.27645080308502656,-0.2773308979620026,-0.1049700065181014,-0.005163690672661189,-0.0016514236098578161,-0.00011945116341233932
5.67,0.2785837949303982,-0.28127818577416974,0.011270110285011015,0.0015666352038336013,0.005456546712189093,-0.00023300780345456417
5.68,0.27596905908922054,-0.2810373153216972,-0.027326759202139783,0.0032539450440346755,0.0082048197635919,-0.00023987511898759388
5.69,0.27525594837651823,-0.2796426236351124,-0.05833404618016402,0.006049067540496037,0.012014882771977391,-0.0002831819845280819
5.7,0.2740071782136866,-0.27906563457413824,-0.08374632361807244,0.008492682520239318,0.01556677268477024,-0.0003143401512483499
5.71,0.27261059813099564,-0.27877041445911743,-0.10501270885754366,-0.005351127353334024,-0.0015962598350969422,-0.00011251227008039801
5.72,0.27467361188193706,-0.2826814756495821,0.010502195237904743,0.001303677578347641,0.005439771907522491,-0.00022562160801588288
5.73,0.2720755886764792,-0.2824068038087546,-0.027855231330420338,0.0029743038359275114,0.008226295947355314,-0.00023251769328188823
5.74,0.2713747611071682,-0.28099500632094987,-0.058669450382353716,0.005739108788104919,0.012047299033750843,-0.00027568738263655226
5.75,0.27014215884690884,-0.28039342746311036,-0.08392338806118005,0.008156125286606263,0.015615791475533956,-0.0003067591535693037
5.76,0.26875566376816096,-0.28007195536083884,-0.10505679249206423,-0.005516234278535129,-0.0015472397828253485,-0.00010598363690031542
5.77,0.27074953472538965,-0.28394692996869253,0.009727823133687252,0.0010622680208033277,0.0054187483917618635,-0.000218615220781822
5.78,0.26816873830881605,-0.28364119670776233,-0.02838846693720143,0.002715898698436758,0.008242756672810722,-0.00022553693698013956
5.79,0.2674807191871409,-0.2822149918113581,-0.05900827844129708,0.005449987678293033,0.012074561818452885,-0.0002685568807936548
5.8,0.2662646355755527,-0.28159134003225006,-0.08410275526671285,0.00784004792324634,0.015659365297071154,-0.0002995330956408599
5.81,0.2648886588119126,-0.2812460242829218,-0.10510223898307913,-0.005659869577710487,-0.0015036648052370837,-9.985198671757064e-05
5.82,0.26681419309948495,-0.28508512554203946,0.00894701710052459,0.0008415761603178034,0.005394165468184322,-0.00021197804570675138
5.83,0.26425105615235367,-0.2847509423986594,-0.02892643589547106,0.0024779034676174166,0.008254878178839038,-0.00021892235146094433
5.84,0.26357629252515835,-0.28331290471861337,-0.05935049077976373,0.005180885991352429,0.012097335307257304,-0.0002617809867367385
5.85,0.26237700314624135,-0.2826695836422033,-0.08428437702434621,0.0075436378870338446,0.015698146120353928,-0.0002926531768431432
5.86,0.26101190580440914,-0.28230272554274904,-0.10514899141611522,-0.005782902649736264,-0.0014648829231966934,-9.410394848288268e-05
5.87,0.26286988021428925,-0.2861062310000051,0.008159840199084556,0.000640759650409546,0.005366663917618373,-0.00020569928456872736
5.88,0.2603247600196923,-0.28574608210263364,-0.029469069637855227,0.0022594804841648214,0.008263288230052174,-0.00021266323589945942
5.89,0.2596636263874075,-0.2842986632867195,-0.05969601101440958,0.0049309743304576294,0.012116234895901298,-0.0002553499668145523
5.9,0.2584813373296413,-0.28363796371166927,-0.08446816988083583,0.0072660719023591065,0.015732736997287954,-0.00028611032943815515
5.91,0.2571274137741497,-0.2832517577466831,-0.10519695933908224,-0.005886210176560113,-0.001430291077158561,-8.87260880634043e-05
5.92,0.2589185762991164,-0.2870200008064927,0.00736639108822601,0.0004589681477577389,0.005336834787404865,-0.00019976796864416623
5.93,0.2563917608933153,-0.286636244233307,-0.03001626581067285,0.0020597845293278978,0.008268565167264055,-0.00020674871917125419
5.94,0.25574456502308607,-0.28518177418668245,-0.06004473060983173,0.004699416019225377,0.01213182665029135,-0.0002492538784425402
5.95,0.2545794185859762,-0.28450587490347345,-0.08465401979407261,0.007006519816218318,0.01576369184787598,-0.00027989525149855267
5.96,0.2532369019192515,-0.28410240930476505,-0.1052460229189478,-0.005970672408671676,-0.0013993353399847884,-8.370493914679233e-05
5.97,0.25496197271213106,-0.2878357712088331,0.0065667993354168175,0.0002953470194708872,0.005305219860660303,-0.00019417299094298037
5.98,0.25245368692417003,-0.28743064071079516,-0.030567892572719302,0.001877966488320874,0.008271238533960956,-0.00020116779225786568
5.99,0.2518206756585428,-0.2859713291858412,-0.06039651307077065,0.004485370726283465,0.012144628187922373,-0.0002434826031639404
6.0,0.25067275590373583,-0.28528229814028805,-0.08484178611212201,0.006764148179938095,0.015791516547394212,-0.0002739984404649958
6.01,0.24934182331737276,-0.28486355578394296,-0.10529603713393954,-0.006037169727503799,-0.001371509829748322,-7.902703416286266e-05
6.02,0.2510014959433704,-0.288562458079511,0.005761221615330214,0.00014904077508476766,0.005272313181234033,-0.00018890313873543707
6.03,0.2485119072481723,-0.28813806513205975,-0.031123792645360027,0.0017131767389093695,0.008271790688456408,-0.00019590934088289206
6.04,0.2478932720162419,-0.2866760036113192,-0.06075119799220374,0.004287997815825972,0.012155110443338432,-0.0002380258799852989
6.05,0.24676261013212297,-0.2859757993345369,-0.08503130548120907,0.006538123557720131,0.015816670812696228,-0.0002684102269702782
6.06,0.24544338805831956,-0.2855436590287752,-0.10534683575258441,-0.006086579482804285,-0.0013463548234073225,-7.467893505409508e-05
6.07,0.24703833092498684,-0.2892085563921398,0.004949837659751211,1.9196225989726035e-05,0.00523856321171084,-0.00018394712608062094
6.08,0.24456755494561833,-0.2887668925666276,-0.03168378707840702,0.0015645682687798362,0.008270659002631173,-0.0001909621780899507
6.09,0.24396343709653934,-0.2873040564477236,-0.061108604505477615,0.004106459428563339,0.012163699951928892,-0.00023287333866204457
6.1,0.24285001642088133,-0.28659452979695743,-0.0852223957537035,0.0063276155671722996,0.015839570550037048,-0.00026312080859001183
6.11,0.2415425854351838,-0.2861507677831554,-0.10539823449562391,-0.006119773098562491,-0.001323454408958362,-7.064726367745884e-05
6.12,0.24307344330232183,-0.2897821413316848,0.004132846598281503,-9.503462090793089e-05,0.00520437534069977,-0.00017929362606594696
6.13,0.24062154901915989,-0.2893250808977399,-0.03224767862519684,0.0014312995290558064,0.00826823837962044,-0.000186315076476181
6.14,0.2400320447737414,-0.2878633318648127,-0.06146853497313032,0.003939923300898429,0.012170781407336321,-0.00022801453262849794
6.15,0.23893580558986827,-0.287146228084012,-0.08541485893687195,0.006131799660094918,0.01586059043897014,-0.0002581202832074252
6.16,0.2376402049364401,-0.2866925197952952,-0.10545003476636339,-0.006137613438220422,-0.0013024339015161417,-6.691873160262547e-05
6.17,0.23910760054146607,-0.29029087080800764,0.003310464151695669,-0.00019449192590502082,0.0051701145509741924,-0.00017493130248142258
6.18,0.23667461512388854,-0.28982017356682377,-0.032815255117668585,0.0013125370336581916,0.00826488391300084,-0.00018195679981035956
6.19,0.23609978024197176,-0.2883612622817111,-0.06183077800869796,0.003787565332277866,0.012176700330712897,-0.00022343897129282214
6.2,0.23502062416191905,-0.28763822319533006,-0.08560848439032043,0.005949859653718091,0.01588006660371779,-0.00025339868171207107
6.21,0.23373685605676542,-0.28717614524609303,-0.10550202635073447,-0.00614095241823302,-0.0012829571719195285,-6.348016907423517e-05
6.22,0.2351413917356382,-0.29074198931056117,0.0024829191502817594,-0.00028000562469587126,0.005136108125254079,-0.0001708488406751149
6.23,0.23272730503620664,-0.29025930356141316,-0.033386292237480575,0.0012074577155624722,0.008260913571730673,-0.00017787613378873502
6.24,0.2321671591021257,-0.28880487253246656,-0.062195111212304255,0.0036485719118696273,0.012181765746771652,-0.00021913615144795393
6.25,0.23110495319667024,-0.2880774389169005,-0.08580305177474656,0.005780990023644657,0.01589829927592568,-0.000248945999786285
6.26,0.22983298676226838,-0.287608471403189,-0.1055539900818303,-0.006130628858168183,-0.0012647239839534627,-6.0318552920579155e-05
6.27,0.23117524609261864,-0.29114233289107005,0.0016504509048331784,-0.00035239327035125646,0.0051026483108461,-0.00016703497736407865
6.28,0.2287800147593444,-0.2906491987353377,-0.033960556216072746,0.0011152510517013828,0.008256610837081315,-0.00017406191570952008
6.29,0.2282345451876111,-0.2892007852040024,-0.06256130404835858,0.0035221420163273395,0.01218625280011543,-0.0002150955875816666
6.3,0.2271891257832337,-0.28847039951429565,-0.08599833332567641,0.005624397970271891,0.015915555388350544,-0.0002447522285673048
6.31,0.225928900707828,-0.2879959282253708,-0.10560570057549512,-0.006107466555105111,-0.0012474674006379312,-5.742103321386389e-05
6.32,0.22720945012100202,-0.2914983353008438,0.000813306932911928,-0.000412458097045384,0.005069994894495792,-0.00016347852920543164
6.33,0.2248330014298361,-0.2909961879105083,-0.03453780635709336,0.0010351209685187201,0.008252227246266609,-0.00017050306287737842
6.34,0.22430216712887585,-0.28955522706652914,-0.06292911994165706,0.003407489090599763,0.012190405271437953,-0.0002113068409013266
6.35,0.22327334328053894,-0.2888232361186738,-0.08619409630483688,0.005479305270618746,0.01593207106314236,-0.0002408073840064017
6.36,0.22202477320654168,-0.2883445551660202,-0.10565692821984385,-0.006072272570008342,-0.0012309512959230093,-5.4774958514197756e-05
6.37,0.2232441635729998,-0.2918160350517951,-2.8259528050966765e-05,-0.00046098729342039686,0.005038377659100767,-0.0001601684199631497
6.38,0.22088639892281492,-0.2913062081155715,-0.03511779727460862,0.0009662875402316011,0.008247984816626187,-0.00016718859958012963
6.39,0.2203701336522812,-0.2898740363654895,-0.06329831844453793,0.003303842723744184,0.012194437970705675,-0.00020775954692097223
6.4,0.21935769035863473,-0.2891416941430691,-0.08639010506072964,0.005344949927435149,0.015948053974536535,-0.00023710153477868242
6.41,0.2181206659646051,-0.2886600086426938,-0.10570744130689036,-0.006025835713932573,-0.0012149679919744374,-5.2367899557101356e-05
6.42,0.21927943421040652,-0.29210108332122786,-0.0008739916168565287,-0.0004987504736846749,0.005007998707434909,-0.00015709370613635712
6.43,0.21694023228491233,-0.2915848126150422,-0.03570028052735097,0.000907988491613805,0.008244078336940045,-0.0001641076825093677
6.44,0.21643844775098842,-0.29016267088621817,-0.06366865733298255,0.0032104501314602608,0.01219853899604125,-0.0002044434414879405
6.45,0.21544214892976754,-0.28943114161350536,-0.08658612287604228,0.0052205876272210395,0.015963685576441268,-0.00023362482862661688
6.46,0.2142165407548191,-0.2889475703682365,-0.10575700777337715,-0.00596892522215574,-0.0011993360315648884,-5.0187671272755764e-05
6.47,0.21531521135820242,-0.29235875260269495,-0.0017236304117318468,-0.0005264983347822725,0.004979034646935266,-0.00015424360094359296
6.48,0.21299443107025695,-0.2918371796845065,-0.0362850068569287,0.0008594805168580374,0.00824067752081533,-0.00016124962452497468
6.49,0.21250701976782693,-0.29042621678243563,-0.06403989406322808,0.003126577456765721,0.012202871854634388,-0.0002013483851545747
6.5,0.21152661088486013,-0.2896965779797256,-0.0867819135308423,0.005105493018466559,0.015979123192381872,-0.00023036751704815452
6.51,0.21031227197987334,-0.2892121563924377,-0.10580539676396938,-0.005902289604701362,-0.0011838980881091095,-4.82223530525013e-05
6.52,0.21135135848560083,-0.2925939461917437,-0.002576916848795463,-0.000544961488337983,0.004951638635346281,-0.00015160749658430533
6.53,0.20904884160621862,-0.29206812186544084,-0.03687172739574862,0.0008200404257024598,0.008237929022476947,-0.00015860391668998547
6.54,0.20857567938570298,-0.29066939811528414,-0.0644117875836514,0.003051510899888292,0.012207577446876934,-0.0001984643858261986
6.55,0.20761088995513433,-0.28994264368975564,-0.08697724279471686,0.00499896082107135,0.01599450196969089,-0.0002273199782653917
6.56,0.2064076582186658,-0.2894583266765949,-0.1058523801233946,-0.005826655662154194,-0.0011685190114542957,-4.646030720289413e-05
6.57,0.20738766470351777,-0.29281120790258797,-0.0034335929655071595,-0.0005548494565046028,0.004925942290600784,-0.00014917498472333734
6.58,0.2051032383132423,-0.2922820961792638,-0.03746019523021005,0.00078896612758685,0.008235958318630901,-0.0001561602485257272
6.59,0.20464418669874362,-0.29089658678316255,-0.06478409936505614,0.002984557687995053,0.012212775917911804,-0.00019578161963962386
6.6,0.20369473252124237,-0.2901736302085567,-0.08717187974127683,0.004900306777460579,0.016009936702546874,-0.00022447273843215096
6.61,0.20250243290220737,-0.2896902951476932,-0.10589773353331111,-0.0057427276560528175,-0.0011530840048228491,-4.48901955512563e-05
6.62,0.2034238553694223,-0.2930147327084853,-0.004293403286226294,-0.0005568498212192401,0.004902057470455159,-0.00014693587516620941
6.63,0.2011573340343631,-0.2924832143591516,-0.038050166644154615,0.000765577464210155,0.008234871462056426,-0.00015390852645911167
6.64,0.20071224239082142,-0.2911118129844681,-0.06515659460859524,0.0029250468950241582,0.012218568382537296,-0.00019329045004754688
6.65,0.19977782757862883,-0.2903934905518213,-0.08736559795607945,0.0048088684555455926,0.016025523530016145,-0.00022181649105913574
6.66,0.19859627403917557,-0.28991194033878287,-0.10594123757812213,-0.005651186623622039,-0.0011374969267531933,-4.3500994187719644e-05
6.67,0.19945960182177203,-0.29320837747093265,-0.0051560958524987655,-0.0005516275168386334,0.00488007792860646,-0.00014488021271287787
6.68,0.1972107895387154,-0.2926752538456867,-0.038641402042571826,0.0007492169004190367,0.008234756713680064,-0.00015183889045300775
6.69,0.19677949703478248,-0.29131877612442736,-0.06552904348922084,0.002872330121413799,0.012225038530352318,-0.00019098144510243357
6.7,0.1958598158768865,-0.2906058501395137,-0.0875581761405897,0.004724005913209758,0.01604134151607082,-0.00021934211465305599
6.71,0.19468881317763476,-0.2901268162425197,-0.10598267870420841,-0.005552689827040073,-0.001121678711065506,-4.228200634703261e-05
6.72,0.1954945302617972,-0.2933956722017683,-0.006021423324398256,-0.0005398242565370177,0.004860080854538418,-0.00014299829219497544
6.73,0.19326322231449922,-0.2928616688357977,-0.039233666910831744,0.0007392500829264306,0.00823568606034255,-0.00014994172882761467
6.74,0.19284555961007754,-0.291520856023908,-0.06590122179517266,0.002825782043122574,0.012232254118389754,-0.0001888453929498572
6.75,0.19194029825087,-0.29081401800468143,-0.08774939924904857,0.004645102233620959,0.016057454118836342,-0.00021704068858161102
6.76,0.19077964363845012,-0.2903381634844493,-0.10602184996599817,-0.005447870327872917,-0.0011055658975989528,-4.122287345024043e-05
6.77,0.19152822988921514,-0.29357983150291034,-0.0068891436555418295,-0.0005220580832783527,0.004842128304486545,-0.0001412806717168044
6.78,0.1893142144471227,-0.2930456019711869,-0.03982673256075486,0.0007350662759596134,0.00823771662557636,-0.00014820769129533345
6.79,0.1889100053364956,-0.2917211242170481,-0.06627291167404792,0.0027848008389196512,0.012240268358520498,-0.00018687331555520601
6.8,0.18801884332120267,-0.29102099826872063,-0.08793905923454304,0.004571563940241377,0.016073910556304815,-0.0002149035071897243
6.81,0.18686832794045927,-0.2905489208693268,-0.10605855155887411,-0.005337336677713307,-0.0010891092664843428,-4.0313584340610043e-05
6.82,0.18756026041621965,-0.293763766308075,-0.007759020697051255,-0.0004989230365741205,0.004826268530802171,-0.0001397181841336203
6.83,0.185363319955556,-0.2932298957780688,-0.04042037705431767,0.0007360786825159401,0.008240891980568267,-0.0001466277002448239
6.84,0.18497238277959127,-0.29192235583508364,-0.0666439022012355,0.0027488085045310204,0.01224912120673982,-0.0001850564806999524
6.85,0.18409499439542287,-0.2912295016699318,-0.08812695519111458,0.004502821300021588,0.016090747075551488,-0.00021292209220417045
6.86,0.18295440469273672,-0.29076173685638196,-0.10609259152971617,-0.005221672716520923,-0.0010722725689145327,-3.9544482760011816e-05
6.87,0.18359015876434626,-0.2939500958021313,-0.008630825192312841,-0.0004709889266581958,0.004812537216675393,-0.00013830194681177489
6.88,0.18141007142702392,-0.29341710463981485,-0.04101438513259836,0.0007417246595086413,0.008245243362161514,-0.00014519296032021055
6.89,0.1810322203699144,-0.29212704115266774,-0.06701399009045872,0.002717251061817543,0.012258840561095023,-0.00018338641229378154
6.9,0.1801682758983958,-0.291441957447347,-0.08831289417088328,0.004438328522878095,0.016107988132119475,-0.00021108820347317771
6.91,0.1790373948029611,-0.29097898138985556,-0.10612378602559147,-0.005101437470512565,-0.001055031347747818,-3.890627312287296e-05
6.92,0.1796174453261301,-0.29414115935821883,-0.009504334599341746,-0.00043880120808119805,0.004800958622846216,-0.00013702336972497273
6.93,0.17745398605661933,-0.2936095066807809,-0.04160854935264524,0.0007514658347161226,0.008250790804404738,-0.00014389496635096216
6.94,0.1770890322827512,-0.29233739764933375,-0.06738297976482954,0.002689598670808354,0.0122694433746674,-0.0001818548990576471
6.95,0.17623819911882777,-0.2916605250646853,-0.08849669132615645,0.004377563865176951,0.01612564748588622,-0.0002093938480961462
6.96,0.17511680711734812,-0.2912027577117726,-0.10615195964902568,-0.0049771651418588836,-0.0010373718416304377,-3.839002465306875e-05
6.97,0.17564162955174822,-0.2943390285459202,-0.01037933412106895,-0.00040288094510292517,0.004791546652482526,-0.0001358741619486554
6.98,0.17349457112736388,-0.29380911581000646,-0.04220266973220532,0.0007647881330644657,0.008257544189718954,-0.00014272550969537828
6.99,0.17314232382936723,-0.29255538182226815,-0.06775068378317428,0.002665345652034361,0.012280936689566965,-0.0001804540016398546
7.0,0.17230426747616434,-0.2918871061829975,-0.08867817037128134,0.004320029644599964,0.01614372921926776,-0.00020783128800521168
7.01,0.17119214364313962,-0.29143491422800594,-0.10617694574222014,-0.0048493651828164985,-0.0010192899667822927,-3.79871739563826e-05
7.02,0.1716622150027547,-0.2945455192815416,-0.011255616385597023,-0.000363724861625332,0.004784305840005844,-0.00013484633662099946
7.03,0.16953132900177081,-0.2940176935695149,-0.04279655453132136,0.0007812017194275204,0.008265504225341893,-0.00014167668306669628
7.04,0.1691915963242252,-0.2927827011944828,-0.0681169231597778,0.0026440104262615656,0.012293318597506207,-0.0001791760582332349
7.05,0.16836598129010838,-0.2921233565089665,-0.08885716344053662,0.004265252173404052,0.016162228683231396,-0.0002063930460657948
7.06,0.16726290406943178,-0.29167705619670414,-0.10619858638705182,-0.0047185224472948775,-0.0010007903709751062,-3.7689526106495105e-05
7.07,0.16767870405054452,-0.2947622038540487,-0.012132982014634308,-0.0003218054687627791,0.004779232269187684,-0.0001339322144439445
7.08,0.16556376160714592,-0.29423676124906706,-0.043390020110223304,0.0008002408647739315,0.008274663350278018,-0.00014074088391576327
7.09,0.16523635144594095,-0.2930208261631151,-0.06848152718674783,0.0026251353783792943,0.012306579132073094,-0.00017801368876557502
7.1,0.1644228420349947,-0.2923706976076801,-0.08903351144340377,0.004212781616772234,0.0161811333761333,-0.0002050719107676065
7.11,0.1633285901103676,-0.2919305577009368,-0.10621673258270903,-0.0045850974131623435,-0.0009818855546865589,-3.7489254327205e-05
7.12,0.16369060192644724,-0.294990422808894,-0.01301123973007634,-0.0002775712634653588,0.004776314425468852,-0.0001331244258018864
7.13,0.16159137449456296,-0.29446761173446134,-0.043982890964855414,0.0008214637421734108,0.008285006577595594,-0.00013991081644780098
7.14,0.16127609523408637,-0.2932710017411466,-0.06884433378928634,0.002608286651882813,0.01232070109745391,-0.0001769597977394632
7.15,0.16047435624777506,-0.2926303286443499,-0.08920706406456702,0.004162191782613265,0.016200423760053147,-0.00020386093958081448
7.16,0.15938870916443193,-0.2921965731950138,-0.10623124413911,-0.004449526468981176,-0.0009625950547580558,-3.737889835629226e-05
7.17,0.15969742051424873,-0.2952312969384252,-0.013890206105315883,-0.00023144699194375777,0.004775533987040026,-0.00013241591157810379
7.18,0.15761368046263158,-0.2947113212314889,-0.044575000046620517,0.0008444521588484638,0.008296512276523556,-0.00013917949235362165
7.19,0.15731034162413948,-0.29353425945899403,-0.06920518934805386,0.002593053880074459,0.01233566083797189,-0.00017600757579968644
7.2,0.1565200389475052,-0.2929032380194485,-0.08937767940864205,0.004113079848875478,0.016220074018897936,-0.00020275346105421685
7.21,0.15544277779611093,-0.2924760491396228,-0.10624198981901145,-0.004312222259142407,-0.0009429446862841764,-3.73513615789098e-05
7.22,0.15569868165421497,-0.29548573893478647,-0.014769705849460024,-0.0001838339719636645,0.004776866558877871,-0.00013179992275128637
7.23,0.15363020286152107,-0.29496876095436164,-0.04516618844263576,0.0008688112301396969,0.008309152898451251,-0.00013854023033716038
7.24,0.15333861557387252,-0.2938114286621385,-0.06956394855706094,0.002579049859779666,0.012351428952462258,-0.00017515050010818864
7.25,0.1525594168061417,-0.2931902149327925,-0.08954522449755586,0.00406506603412075,0.016240052762223477,-0.0002017430757338964
7.26,0.15149032465799905,-0.2927697353527492,-0.1062488469116829,-0.004173574081701741,-0.0009229658387850011,-3.7399907019432135e-05
7.27,0.1516939201806622,-0.2957544650250554,-0.01564957155864022,-0.0001351104683551584,0.004780282353609973,-0.00013127001885535457
7.28,0.14964047839960415,-0.29524060865426804,-0.04575630537573261,0.0008941690009850443,0.008322895650624915,-0.0001379866545224356
7.29,0.14936045601210424,-0.2941031481107359,-0.0699204747078852,0.0025659101731296194,0.012367970957200552,-0.00017438233360733942
7.3,0.14859203080419547,-0.2934918604857728,-0.08970957445342265,0.004017793216828235,0.016260323678421753,-0.0002008236559813805
7.31,0.1475308932707975,-0.29307819639612376,-0.10625170141054241,-0.004033948333507946,-0.0009026948230132087,-3.751815228109483e-05
7.32,0.14768268646214722,-0.2960380063043999,-0.016529643751539425,-8.563211640468492e-05,0.00478574682275368,-0.0001308200653862481
7.33,0.145644059816874,-0.29552735979265776,-0.04634520813340259,0.0009201760201825696,0.008337703121013725,-0.0001375126918228716
7.34,0.1453754181746092,-0.2944098770640835,-0.0702746389080744,0.0025532927626196996,0.012385247900793142,-0.00017369712325234092
7.35,0.14461743877092204,-0.29380859908556545,-0.08987061296039656,0.0039709265086167195,0.01628084614060764,-0.00019998934477044123
7.36,0.14356404434145986,-0.29340182239323553,-0.10625044751577661,-0.0038936889975123134,-0.0008821722650623684,-3.770006352257923e-05
7.37,0.14366454879066737,-0.2963367200159439,-0.01740977069175642,-3.5732388046447964e-05,0.0047932212416196725,-0.00013044423023887296
7.38,0.141640518078745,-0.29582933869676253,-0.04693276178358019,0.0009465048724730928,0.008353533857564856,-0.00013711256835592498
7.39,0.14138307594890875,-0.2947319063117959,-0.07062632047194484,0.0025408774644316567,0.012403216934181454,-0.00017308919729323722
7.4,0.1406352174448955,-0.29414068908550917,-0.09002823158965612,0.003924152786289868,0.016301575768311462,-0.000199234553541239
7.41,0.13958935783264792,-0.29374084000721723,-0.1062449876698679,-0.0037531181673959597,-0.0008614425446699034,-3.79399485596383e-05
7.42,0.1396390954422344,-0.2966508003510171,-0.018289808032534438,1.4276903944518329e-05,0.004802663250910339,-0.0001301369792567918
7.43,0.13762944435669056,-0.29614670943090005,-0.047518839068061425,0.0009728496731945187,0.008370342904818322,-0.0001367808049847829
7.44,0.13738302370391864,-0.2950693689030004,-0.07097540642320155,0.002528365504722922,0.01242183183867624,-0.00017255316168600916
7.45,0.13664496436582851,-0.29448823356759135,-0.09018232972834994,0.003877180187386042,0.01632246494782654,-0.00019855395918944263
7.46,0.13560643483678803,-0.2940953230456955,-0.10623523216679587,-0.0036125366049693766,-0.0008405532748654715,-3.823244917846021e-05
7.47,0.13560593637329532,-0.29698028919611374,-0.01916961892334257,6.410506828829089e-05,0.004814027357816426,-0.0001298930709757307
7.48,0.13361045179571818,-0.29647948629474286,-0.04810332008275964,0.0009989255299776663,0.00838808230062285,-0.0001365122120674158
7.49,0.13337487797748793,-0.2954222506090787,-0.071321791175194,0.002515478963308784,0.012441043514713632,-0.00017208389571083684
7.5,0.1326462994910571,-0.29485119075189914,-0.09033281447301533,0.0038297375736001038,0.01634346331385985,-0.00019794250026649966
7.51,0.13161489909485624,-0.2944652026037886,-0.10622109886782027,-0.0034722243260114595,-0.0008195548203166862,-3.8572532745604585e-05
7.52,0.13156470476616278,-0.2973250867022159,-0.02004907340591444,0.00011348196836212347,0.004827265399202463,-0.00012970755064015046
7.53,0.12958317689992782,-0.29682754419724233,-0.048686092277705484,0.001024467975752031,0.008406701535494911,-0.00013630188349176753
7.54,0.12935827893301166,-0.2957904001554823,-0.07166537649538895,0.0025019602089642145,0.012460800433818614,-0.00017167654687374638
7.55,0.1286388665810989,-0.2952293840507991,-0.09047960006114408,0.003781573966261319,0.01636451819492801,-0.00019739537246567875
7.56,0.12761439829311882,-0.29485027727815805,-0.10620251295279104,-0.0033324412104874844,-0.0007984998519297674,-3.895548319695689e-05
7.57,0.12751505836128274,-0.29768496117910104,-0.020928048520829634,0.00016215743021547957,0.004842326969294688,-0.0001295757435702274
7.58,0.12554728084701594,-0.29719062867528123,-0.0492670497465042,0.0010492323770426018,0.00842614797698182,-0.00013614519007334883
7.59,0.12533289149629923,-0.29617353924038525,-0.07200607111457202,0.002487571310294318,0.012481049056105805,-0.0001713265251659352
7.6,0.12462233431875802,-0.29562251196324496,-0.09062260772907393,0.003732457957783291,0.01638557502478032,-0.00019690802346612656
7.61,0.12360460527105488,-0.2952502228481535,-0.10617940667145831,-0.0031934276333244384,-0.0007774429354235821,-3.9376891485460414e-05
7.62,0.12345668046975788,-0.29805955909623094,-0.021806427703552345,0.00020990062926091449,0.004859159814090979,-0.00012949324795392318
7.63,0.12150245050079889,-0.29756836569916345,-0.04984609340397128,0.0010729933213353654,0.008446367261206213,-0.0001360377723892079
7.64,0.12129840638586131,-0.2965712719849023,-0.0723437903360491,0.0024720934259003765,0.012501734215445605,-0.0001710294967523994
7.65,0.1205963973216484,-0.29603015763157714,-0.09076176549882575,0.0036821771027751938,0.01640657772194604,-0.00019647614720501197
7.66,0.11958521886512585,-0.2956646017082676,-0.10615171888161967,-0.0030554051121371786,-0.0007564401517795895,-3.983264556466892e-05
7.67,0.11938928087928957,-0.2984484146573152,-0.022684100855485667,0.0002564994592166689,0.004877710194590654,-0.00012945592713639614
7.68,0.11744839923721884,-0.29796027092743316,-0.050423130382171166,0.0010955439870562877,0.008467303653646237,-0.00013597553311970375
7.69,0.11725454093003407,-0.29698309447212523,-0.07267845578695642,0.0024553261773756834,0.01252279947431804,-0.0001707813771592396
7.7,0.11656077687050015,-0.296451798060815,-0.09089700775177789,0.003630537292304074,0.01642746903939084,-0.00019609567764536655
7.71,0.11555596469037255,-0.2960928721762457,-0.10611939483595734,-0.0029185769685603144,-0.0007355487475829425,-4.03189199817429e-05
7.72,0.11531259653807524,-0.29885095884196744,-0.02356096370448313,0.0003017598866484586,0.004897923220763648,-0.00012945990147585765
7.73,0.11338486763712297,-0.2983657591038025,-0.050998073852781545,0.0011166954994808811,0.00848890038103374,-0.00013595462896626693
7.74,0.11320103970646755,-0.2974084036289071,-0.07300999538273345,0.0024370870083937654,0.012544187450204787,-0.00017057832402585338
7.75,0.11251522153976623,-0.2968868130359681,-0.09102827476681341,0.0035773621145445004,0.016448190886101992,-0.00019576278210421314
7.76,0.11151659567332217,-0.29653439712618024,-0.1060823858622939,-0.002783129000003175,-0.0007148268134350294,-4.083216515049463e-05
7.77,0.11122639212324259,-0.29926652857170666,-0.024436917769321553,0.000345505294283227,0.0049197431580842825,-0.0001295015398322551
7.78,0.10931162397476157,-0.29878415256590074,-0.051570842742876266,0.0011362762756998786,0.008511099936162081,-0.00013597146221075684
7.79,0.10913767494180604,-0.297846506036592,-0.07333834254552585,0.0024172105330060516,0.012565840115280162,-0.00017041672948568104
7.8,0.10845950762394807,-0.29733449379065746,-0.09115551272032008,0.0035224922049075665,0.01646868462233171,-0.00019547385420306442
7.81,0.10746689253160469,-0.2969884526748956,-0.10604064897279386,-0.0026492301589172746,-0.0006943329887079859,-4.136909637131265e-05
7.82,0.1071304603694756,-0.29969437504107077,-0.025311869968902556,0.0003875758160093107,0.004943113708309059,-0.0001295774507517116
7.83,0.10522846456417767,-0.299214689949423,-0.05214136141518111,0.001154131361543379,0.008533844357247022,-0.0001360226719783837
7.84,0.10506424694689542,-0.29829662620883823,-0.0736634361331312,0.0023955478760124384,0.012587699071013002,-0.00017029321223569345
7.85,0.10439343944845803,-0.2977940512494115,-0.09127867315328331,0.003465784588470228,0.016488891330090807,-0.00019522550649960486
7.86,0.10340666397823384,-0.29745423631766243,-0.10599414661527362,-0.00251703323678919,-0.0006741261910491944,-4.192668266150628e-05
7.87,0.10302462234434984,-0.3001336721730752,-0.026185732266981177,0.00042782766634425623,0.004967978266089497,-0.00012968447340665066
7.88,0.10113521398125158,-0.2996565342350266,-0.05270955931280241,0.0011701217632012842,0.00855707548340505,-0.00013610512526341208
7.89,0.10098058423224643,-0.2987579146918051,-0.07398522029689047,0.0023719660081242522,0.012609705799228302,-0.00017020460935218243
7.9,0.10031684955613684,-0.29826462400350806,-0.09139771272259622,0.003407112017404626,0.01650875206040884,-0.00019501456285656615
7.91,0.09933574691700642,-0.2979308748507492,-0.10594284621134875,-0.002386675550356183,-0.0006542653691192432,-4.2502135455761497e-05
7.92,0.09890872754603208,-0.30058352434636504,-0.027058421565584467,0.0004661324668930036,0.004994280152904677,-0.00012981966834800117
7.93,0.09703172516140057,-0.30010878059982815,-0.05327537067500998,0.00118412377604334,0.008580735187706133,-0.0001362159077730755
7.94,0.09688654360573423,-0.2992294558090691,-0.07430364384219956,0.0023463470784002073,0.012631801891052629,-0.0001701479679067407
7.95,0.09622959870725367,-0.29874528594930894,-0.09151259281026114,0.003346362305865368,0.01652820805876998,-0.0001948380506006031
7.96,0.09525400646026583,-0.2984174318854116,-0.10588672008537969,-0.0022582796276332277,-0.0006348092771543967,-4.309289723298333e-05
7.97,0.09478265387663498,-0.3010429741578946,-0.027929859172104443,0.0005023765722017822,0.005021962829715668,-0.00012998030812274626
7.98,0.0929178793729335,-0.3005704638248119,-0.05383873432407427,0.0011960283130154584,0.00860476558917474,-0.00013635231464227115
7.99,0.09278201011930776,-0.2997102750512681,-0.074618660157455,0.0023185877463101044,0.012653929255101134,-0.00017012053643357337
8.0,0.09213157587950604,-0.29923505360685,-0.09162327938128101,0.00328343766465677,0.016547200970056727,-0.00019469319252084986
8.01,0.09116133584008423,-0.29891291505990125,-0.10582574493156471,-0.002131953891591036,-0.0006158162700213056,-4.369663012182917e-05
8.02,0.09064630756228098,-0.30151100956388177,-0.02879997069271667,0.0005364603971894913,0.005050970089651713,-0.00013016386780656097
8.03,0.08879358605717869,-0.3010405655778925,-0.054399593309995,0.0012057402347724548,0.008629109245029451,-0.00013651184106796738
8.04,0.0886668969357629,-0.30019934607494747,-0.07493022675220118,0.0022885985155665384,0.012676030306175933,-0.00017011975629568947
8.05,0.08802269807262064,-0.29973289308316,-0.0917297425573338,0.0032182540378071236,0.01656567302425598,-0.00019457739875386844
8.06,0.08705765623062689,-0.29941628296725753,-0.10575990156524995,-0.002007793339463397,-0.0005973441175094046,-4.43112045337353e-05
8.07,0.08649962293105773,-0.3019865708075997,-0.029668685712636034,0.0005682977481899503,0.005081246231963724,-0.00013036801549795306
8.08,0.08465878265973004,-0.3015180211640711,-0.05495789462628409,0.0012131776835578964,0.008653709324373616,-0.00013669217290895451
8.09,0.08454114508005262,-0.3006955975060066,-0.0752383051860761,0.0022563030717234226,0.012698048135672083,-0.00017014325299464435
8.1,0.08390291004189976,-0.30023772671583515,-0.09183195633255536,0.003150740443019403,0.016583567204103377,-0.00019448825859839952
8.11,0.08294291652610752,-0.299926451798882,-0.10568917470976658,-0.0018858802158176805,-0.0005794498366851128,-4.493468786868614e-05
8.12,0.08234256207551027,-0.30246855702742437,-0.03053593747637251,0.0005978151594787885,0.005112736218430333,-0.0001305906028171906
8.13,0.08051343426629387,-0.3020017259558472,-0.05551358896127567,0.0012182714226805554,0.008678509764499581,-0.00013689117729349693
8.14,0.0804047231284244,-0.3011979193523473,-0.07554286064248572,0.0022216376253689574,0.012719926664832609,-0.000170188827465125
8.15,0.079772184022886,-0.30074843941463314,-0.09192989828932241,0.0030808383178130803,0.016600827395793737,-0.00019442353230048076
8.16,0.0788170929144627,-0.3004423014019153,-0.10561355274774087,-0.001766284677713825,-0.0005621895411800706,-4.556533333518811e-05
8.17,0.0781751145506604,-0.302955832527374,-0.031401662639041206,0.0006249512369940588,0.0051453858133039656,-0.00013082965544972957
8.18,0.07635753326518113,-0.30249054173481227,-0.056066630413909024,0.0012209641832839116,0.00870345541088051,-0.0001371068932739531
8.19,0.07625762680874004,-0.3017051690257233,-0.07584386164438683,0.0021845502625974255,0.012741610781916877,-0.00017025444739272126
8.2,0.07563051924286412,-0.3012638846655591,-0.09202354949167102,0.0030085008730199063,0.01661739852380562,-0.00019438114284633113
8.21,0.07468018855760761,-0.30096268140766824,-0.10553302718818713,-0.0016490654503891018,-0.0005456183063652018,-4.6201568922439975e-05
8.22,0.07399729686774492,-0.3034472326390869,-0.03226580112425381,0.0006496560108120663,0.005179141707848935,-0.00013108336377088794
8.23,0.07219109884104569,-0.3029833023404649,-0.05661697628056572,0.0012212100199452277,0.008728492141883013,-0.00013733752256441005
8.24,0.07209987851197752,-0.30221617715042726,-0.07614127987665142,0.0021450003042865215,0.01276304646429575,-0.00017033823858998422
8.25,0.07147794154782616,-0.3017828902329711,-0.09211289402344391,0.0029336924551455605,0.016633226670838493,-0.00019435916779750092
8.26,0.07053223302300182,-0.301486416738328,-0.10544759270203485,-0.0015342704720864631,-0.0005297900494122855,-4.684198655942646e-05
8.27,0.06980915198795401,-0.3039415694239267,-0.033128295804374375,0.0006718902978009797,0.005213951630456366,-0.000131350073585201
8.28,0.06801417652191333,-0.30347881935455234,-0.057164586664271155,0.0012189736765127867,0.008753566979166242,-0.00013758142039416686
8.29,0.0679315268126146,-0.30272975299894256,-0.07643508997290382,0.0021029576755714667,0.012784180886430827,-0.00017043847646310608
8.3,0.06731450279851003,-0.3023042635064144,-0.09219791881065476,0.0028563879189671434,0.016648259183811277,-0.00019435583119982742
8.31,0.06637328179515123,-0.30201231290050146,-0.10535724683791159,-0.0014219375267356788,-0.0005147574232941959,-4.748533149211704e-05
8.32,0.0656107487984059,-0.30443763689547154,-0.03398909210972079,0.000691625075743454,0.005249764443285891,-0.00013162827701106213
8.33,0.0638268375485751,-0.303975887234742,-0.057709424581275925,0.0012142299634611258,0.008778628184706668,-0.0001378370865070379
8.34,0.06375264587354934,-0.3032446896611418,-0.07672526912472222,0.0020584022867886752,0.012804962514662198,-0.00017055357759850791
8.35,0.0631402802930836,-0.3028267965632381,-0.09227861337279819,0.002776572011634032,0.01666244476682931,-0.0001943694955951708
8.36,0.062203415689410235,-0.30253916106559586,-0.10526198959581734,-0.001312094863392549,-0.0005005717238167236,-4.813049190668348e-05
8.37,0.06140218146377663,-0.30493421606436755,-0.034848138206200474,0.0007088408700689475,0.005286530226289994,-0.0001319166035379097
8.38,0.059629178279507755,-0.3044732882173662,-0.058251455286040255,0.001206963147878025,0.008803625345295756,-0.00013810315633323527
8.39,0.05956333482437515,-0.3037597688404503,-0.07701179708163863,0.0020113234269953004,0.012825341189637695,-0.00017068209149578156
8.4,0.05895537618094693,-0.3033492709825225,-0.09235496971626844,0.0026942387693571234,0.016675733561945398,-0.00019439865416173035
8.41,0.05802274019472975,-0.3030657427061101,-0.10516182342712455,-0.0012047618013924784,-0.00048728280885638325,-4.877648882382259e-05
8.42,0.05718356876016628,-0.3054300795568565,-0.0357053843202948,0.0007235271542389431,0.00532420034950766,-0.00013221381128082827
8.43,0.055421319569148864,-0.3049697970070042,-0.058790646448869666,0.0011971663571305928,0.00882850944536797,-0.00013837839235816208
8.44,0.05536371707748344,-0.304273765419083,-0.07729465568928617,0.0019617191710952367,0.012845268197239204,-0.0001708226924709655
8.45,0.05475991677883485,-0.3038704622682076,-0.09242698205014221,0.0026093909277069153,0.016688077218557217,-0.00019444192300664107
8.46,0.053831384834168716,-0.30359083398323605,-0.10505675280825244,-0.00109994932035303,-0.00047493902896185436,-4.942246628581243e-05
8.47,0.052955053408965114,-0.30592399603790454,-0.036560782916694734,0.0007356817646946355,0.005362727534384295,-0.00013251877845425918
8.48,0.051203405977418015,-0.30546418502197525,-0.059326967800643615,0.0011848409970909605,0.00885323292892905,-0.00013866167570930724
8.49,0.05115393968857518,-0.30478545170353755,-0.07757382896045328,0.0019095958014566572,0.012864696328753537,-0.00017097417175112906
8.5,0.0505540518513925,-0.3043891440590585,-0.09249464639538019,0.0025220393463958324,0.016699428952183886,-0.0001944980336316186
8.51,0.04962950243658781,-0.30411320995682445,-0.10494678434724847,-0.0009976606342455042,-0.0004635871685763557,-5.006768185537299e-05
8.52,0.048716801321901926,-0.3064147343323498,-0.03741428834302951,0.0007453103311580677,0.005402065904894336,-0.00013283049508405254
8.53,0.046975605183519065,-0.30595522442666834,-0.059860390884125536,0.0011699961857095996,0.008877749751330051,-0.000138951997980114
8.54,0.04693417255730026,-0.30529360135034267,-0.07784930261323098,0.0018549672447908665,0.012883579931035836,-0.0001711354297790133
8.55,0.04633795390951434,-0.3049040920366508,-0.09255796079798984,0.002432202449304726,0.016709743593353005,-0.00019456582559011505
8.56,0.04541726841722493,-0.30463164833349765,-0.10483192628640836,-0.0008978917488550752,-0.0004532723971495331,-5.071149744261951e-05
8.57,0.044469000899383104,-0.3069010672085426,-0.038265856616703786,0.0007524257229972106,0.005442171029197463,-0.0001331480549746787
8.58,0.04273810708887993,-0.30644169191518245,-0.06039088905396284,0.0011526482026387834,0.008902015421617709,-0.00013924845330706855
8.59,0.04270460772559659,-0.30579699313193487,-0.0781210641420671,0.0017978545249983532,0.012901874947377951,-0.00017130546874412946
8.6,0.0421118174553925,-0.3054140875136113,-0.09261692483164552,0.0023399056804419643,0.016718977627309308,-0.00019464423935229783
8.61,0.04119488004938887,-0.3051449330904177,-0.10471218843122188,-0.000800632002082682,-0.0004440382294277623,-5.135337047342819e-05
8.62,0.040211862186723124,-0.3073817749488228,-0.03911544546042478,0.0007570475122300553,0.005482999952480278,-0.00013347064794562232
8.63,0.03849112315101877,-0.30692237217522234,-0.06091843705036126,0.001132819955461918,0.008925987036106368,-0.00013955023071391645
8.64,0.03846545859609307,-0.3062944143117363,-0.07838910253354925,0.0017382852325272423,0.012919538949724585,-0.00017148338535405815
8.65,0.03787585820980155,-0.30591792086198666,-0.09267153959768848,0.002245180976384196,0.016727089225176715,-0.00019473230939159582
8.66,0.03696255562068984,-0.30565185776154635,-0.10458758215037278,-0.0007058645865874206,-0.00043592649429111466,-5.199284541058149e-05
8.67,0.03594561615472003,-0.3078556486002526,-0.03996301380482237,0.0007592014536806707,0.005524511221669086,-0.00013379755234922236
8.68,0.034234885539774496,-0.3073960611033044,-0.06144301121224771,0.001110540463044347,0.008949623303841149,-0.00013985660673463096
8.69,0.034216959150512594,-0.3067846638415972,-0.07865340815982336,0.001676293010755734,0.01293653116289686,-0.00017166836385802155
8.7,0.03363031231273794,-0.3064143945685771,-0.0927218074053826,0.0021480662556918368,0.016734038267223524,-0.00019482915750486363
8.71,0.032720533784669215,-0.3061512285107426,-0.10445811998494037,-0.000613567054416831,-0.0004289773114872254,-5.262954563619942e-05
8.72,0.031670513802595224,-0.30832149299442335,-0.040808522072666165,0.0007589189826845374,0.0055666649025974966,-0.000134128127879467
8.73,0.029969646391236893,-0.30786156884232696,-0.06196458901541746,0.0010858443563847857,0.008972884564536716,-0.0001401669383246311
8.74,0.02995936311478431,-0.30726655518620305,-0.07891397252990373,0.001611917059777598,0.012952812481400504,-0.00017185966933227302
8.75,0.02937543555958655,-0.30690232613039825,-0.09276773191402299,0.0020486049256793815,0.01673978635880688,-0.00019493398637587778
8.76,0.028469072574921483,-0.3066418669561699,-0.10432381568392657,-0.0005237118033054656,-0.00042322907568586796,-5.326316570206365e-05
8.77,0.027386825500741452,-0.3087781295718628,-0.04165193168148562,0.0007562367306701578,0.005609422590236877,-0.0001344618086797499
8.78,0.025695676910686416,-0.3083177223572875,-0.062483149037007024,0.0010587713972935653,0.008995732799589257,-0.00014048065606777932
8.79,0.025692943221855558,-0.3077389191297186,-0.07917078832520019,0.0015452016579140754,0.012968345479408235,-0.00017205664123534265
8.8,0.02511150254846939,-0.30738055070145265,-0.09280931767108314,0.0019468454068480442,0.016744296839573455,-0.00019504607339020522
8.81,0.024208448792251147,-0.3071226126749593,-0.10418468402662029,-0.0004362665444274385,-0.0004187184472773768,-5.389346395218825e-05
8.82,0.023094839995962957,-0.3092243988689347,-0.042493205150151425,0.0007511960588653993,0.005652747412531122,-0.000134798096755242
8.83,0.02141326662652432,-0.3087633680998181,-0.06299867095549416,0.0010293660151388484,0.009018131636695702,-0.0001407972576846623
8.84,0.02141799035015879,-0.30820060608505173,-0.07942384907977385,0.0014761957011819992,0.012983094414445385,-0.00017225868723892557
8.85,0.02083880595193932,-0.30784792334870303,-0.0928465703253778,0.0018428406752154659,0.016747534786442787,-0.00019516476470767517
8.86,0.019938957098730725,-0.30759232565458205,-0.10404074057390744,-0.00035119475145991403,-0.00041548034938846193,-5.452025552017865e-05
8.87,0.0187948636742874,-0.30965916286262996,-0.043332305885712685,0.0007438426102933755,0.005696604028369811,-0.00013513655569399549
8.88,0.01712272259979386,-0.30919737412204995,-0.06351113523095364,0.000997676861817584,0.009040046348612135,-0.00014111630184611364
8.89,0.01713481269760564,-0.3086504884208807,-0.07967314935797276,0.001404952260890247,0.01299702522530713,-0.00017246527733893015
8.9,0.016557655584392705,-0.30830332145015404,-0.09287949620073732,0.0017366478227007149,0.016749467010894588,-0.0001952894695970272
8.91,0.015660909209458396,-0.308049888282369,-0.10389200184590663,-0.00026845609088859985,-0.0004135479705940845,-5.514340570189464e-05
8.92,0.014487219797132411,-0.31008130703114034,-0.04416919807681552,0.0007342258801503118,0.005740958620193948,-0.00013547680469908557
8.93,0.012824368500474748,-0.30961863219047814,-0.06402052317611151,0.0009637563850383215,0.009061443846539466,-0.00014143740229400205
8.94,0.012843735053280625,-0.309087462415647,-0.07991868432810634,0.0013315281594306232,0.013010105524678715,-0.0001726759382491973
8.95,0.012268377727053803,-0.3087456464001548,-0.0929081024381162,0.001628327635631924,0.016750062051027786,-0.00019541965503570543
8.96,0.011374633146488122,-0.30849420744161193,-0.10373848489564352,-0.0001880068335189328,-0.0004129527728575916,-5.5762823702533453e-05
8.97,0.010172247524309341,-0.3104897422545605,-0.04500384665817592,0.0007223988046222008,0.005785778881705912,-0.00013581851293256378
8.98,0.008518543932467537,-0.3100260596333726,-0.06452681677870942,0.0009276604199725998,0.009082292668602755,-0.0001417602222699944
8.99,0.008545097855972017,-0.309510449945094,-0.08016044990455384,0.0012559835643324736,0.013022304586936076,-0.00017289024807923327
9.0,0.007971314257559925,-0.3091738255989185,-0.09293239674690312,0.001517944191441085,0.0167492901588574,-0.00019555484057642413
9.01,0.007080472350651235,-0.30892421603923026,-0.10358020752221364,-0.00010980024728051525,-0.0004137245042331317,-5.637845675550448e-05
9.02,0.005850301292298354,-0.3108834064313726,-0.04583621713294406,0.0007084173680864419,0.005831034001148212,-0.00013616139417063167
9.03,0.004205603509888078,-0.3104186009217358,-0.06502999866597747,0.0008894477992119271,0.009102562963881847,-0.0001420844692515715
9.04,0.004239256519156243,-0.30991840031191487,-0.08039844249907446,0.0011783816005179232,0.013033593331564043,-0.0001731078312958514
9.05,0.003666821832837286,-0.30958681383808084,-0.09295238744044809,0.001405564473473824,0.016747123283291324,-0.00019569459348082574
9.06,0.002778784988777261,-0.3093388746400194,-0.10341718791551102,-3.3786971386591015e-05,-0.00041589121588812145,-5.699028460894891e-05
9.07,0.00152174987277931,-0.31126126605940385,-0.04666627564375858,0.0006923402286439814,0.005876694640541858,-0.0001365052017679207
9.08,-0.00011408388900235877,-0.31079522914367885,-0.0655300518559443,0.0008491799809733936,0.00912222647239159,-0.00014240988999303996
