timestamp, accel_x, accel_y, accel_z, gyro_x, gyro_y, gyro_z
0.01,0,0,0,0.014832382124264944,0.008896891134513675,-0.02573951885370197
0.02,0,0,0,0.006243861507663144,0.013315011120932023,0.00750551755390629
0.03,0.006987652122455789,-0.006712442997638739,0.1946776996952993,0.004942919740001446,-0.0010294397353301562,0.00910754348544392
0.04,0.0024068147971711192,0.004634899851479229,-0.025326028642525172,0.00520233649063758,-0.0028169056707390786,-0.005269916955254677
0.05,-0.011581739782159295,0.003886909845972952,0.0055967890661635464,-0.0044455325773370405,0.013431829810143408,0.007306115742545278
0.06,0.004280921879613004,-0.007430192536156645,-0.010842552210330803,0.005701790936595418,-0.0027557356309111125,0.001994685006191536
0.07,-0.0019172341692856038,-0.009987931097518277,-0.012118083174825031,0.00994272064586383,0.009463976911188991,0.012446610881038664
0.08,-0.012035344379948971,-0.007060321575079973,-0.0033093657546242007,-0.008253645988902636,-0.011749194984644865,0.018309334699525857
0.09,-0.006466307682306745,0.011474325263225381,-0.2117249470576725,0.004419473395264895,-0.010083379469103974,0.009206801306301537
0.1,-0.005052949585743576,0.004044370809752877,-0.260010468318585,-0.0050093039665341735,-0.027362167904387034,-0.004377855261743562
0.11,-0.012166123108198947,0.004011855553798322,0.010466987187945783,-0.0017792964163358274,-0.013490736631218816,-0.01461810217122056
0.12,-0.0003467491272261627,-0.0002915413189933636,0.00032299843469560906,-0.0005784757418445755,-0.01118754485146241,0.005112627986339685
0.13,0.023189845467890397,-0.007704844888744606,0.010253243961898306,0.001254146413116401,-0.017486290445754078,0.0009440884043234047
0.14,0.0031294234824244946,0.0070833112383192,0.008824460638323628,-0.01634478444418062,-0.03872511955313299,-0.0018177408255432054
0.15,0.0038775539152523866,-0.0020874723832418306,-0.0023128367804775424,0.0017924445517769536,-0.018255600439614172,-4.810186259242028e-06
0.16,0.009868229340771603,-0.0003004774454612269,0.2334527463779467,-0.011373356271169126,-0.0302451487144237,-0.004206364225016363
0.17,0.010442164256285674,0.0017605208854552883,-0.0023603272415856783,0.005308504105209827,-0.04391652981067204,-0.008246646597024544
0.18,0.009605388627496061,-0.008381592372012473,0.008656108527545026,-0.03174931884911149,-0.03614907678889798,0.013783194235721215
0.19,-0.005249004850138876,-0.005337003613733215,7.926230566731511e-05,-0.004429665781647326,-0.022451164066045852,0.006259378401791051
0.2,0.012810520752197485,-0.014065290921634456,-0.5196430210831035,0.0019523006036212898,-0.031067130224238987,-0.013363590117299649
0.21,0.037216917303885065,-0.013526455223886999,0.030917871037298976,-0.015087262217302937,-0.05071764122565969,0.00627850451344903
0.22,0.028239466426060934,0.0030120836753183577,0.02044098997263928,0.00521989878017769,-0.026984462329527066,0.004595330099569787
0.23,0.030916973106372328,-0.002499621599401352,-0.23461494259758053,-0.0026406536337725156,-0.037103229264114336,0.0016422639981786404
0.24,0.04081342200532005,-0.013098279688604674,0.0391755241259144,-0.0156829825904083,-0.03646516931608975,-0.012171471768570476
0.25,0.05459035058058722,-0.008207698156668705,0.014669442242003238,-0.004618369581228786,-0.034762307435676036,-0.0054283759296678905
0.26,0.029476841950239845,0.0025988819923298562,0.08044162102595899,0.02027879064390553,-0.05342642105100997,0.009618162200243172
0.27,0.018237100534846465,0.027781434667512882,0.04648750722194091,0.006848420099490262,-0.04226204114935264,-0.006060254568518745
0.28,0.0359240745942702,-0.015398809225337203,0.5868876556716847,0.005502877331124051,-0.0438029728587776,-0.009873223210603107
0.29,0.051282888275171426,-0.0008184747446635093,-0.0019072212425671493,0.009654761611206427,-0.03644809944888369,0.005581803473473525
0.3,0.06481136395940225,-0.0048629604903008385,-0.015293975225577123,0.025609203075426034,-0.046176288340617884,-0.02523981986284846
0.31,0.06465554313736088,0.005383092388458801,-0.02057837367061334,0.002764073160278137,-0.04210311374226809,-0.006995230250010508
0.32,0.06046650231040278,-0.008043866802463655,0.18450096200921373,0.013070895476029732,-0.053676878569420015,0.0062672262872450445
0.33,0.06626909818186764,-0.018303618817309172,-0.03026306754197527,-0.005863475400221479,-0.05128257003285121,0.005591130716648596
0.34,0.058334570145395365,-0.004895407692219719,-0.021825327401185597,-0.013569561686592065,-0.05717158884261487,-0.002629278710247357
0.35,0.08682696952044644,0.0074094616844769205,-0.0014070514034091007,0.004542217446696921,-0.03609490559367462,0.0020305699184615905
0.36,0.07806146139350761,-0.006080874380606694,0.10959438160504978,-0.0006133223474907728,-0.05291814941637243,-0.005588914058095315
0.37,0.07074951795018458,-0.0031746927472611755,0.002360028329509061,0.019048917709534364,-0.03342137696150198,0.010669027575924582
0.38,0.08359688729406224,-0.003234690781520109,-0.026162337151586345,-0.0029690835627117695,-0.04170051664751369,-0.0022732016181566737
0.39,0.09713365669166626,-0.0023823417174125942,-0.7528449488703292,-0.0074585560727491364,-0.04602296891926701,-0.003092563989474615
0.4,0.09166589065115467,-0.007124957772961791,0.01786505027418256,0.00026108094704559506,-0.04361170353676499,-0.007517406873424372
0.41,0.10407415002739366,-0.017960852602240528,0.03593965577953793,-0.0011610002213412217,-0.04435213913606279,0.0018531891154734996
0.42,0.10837191440301415,-0.013352203606637993,0.02849136986289084,0.00995074076127982,-0.051893983719707125,0.015055576884869415
0.43,0.10822469879094677,0.003727385567075491,0.012174501973470031,0.00978963503551023,-0.04412981940823454,-0.017927458741046273
0.44,0.10976493374813484,0.0024616789602160656,0.020768767445187325,0.001369580574466076,-0.04462362734541227,-0.00030756822396746386
0.45,0.10280509884020565,0.004828412931918957,0.03785636318358997,-0.0047703967892239706,-0.052227993671157456,0.004808457232823097
0.46,0.13221442809386671,0.0013883273239968883,0.026624717295577915,0.004854581601925559,-0.05602062052956583,-0.0073300940677616016
0.47,0.1425553513995012,-0.01640619884910182,0.009525679045706285,-0.006490027275732904,-0.04792000279224769,-0.0018646863249494787
0.48,0.1398153748339261,0.0023518215522181996,0.008469742766618066,0.016615422111142194,-0.03674687960604901,0.008441151654174875
0.49,0.13726556372746695,-0.0018349998481420227,0.01678836523775073,0.007148782366609946,-0.04206520673943752,0.0060962071138707516
0.5,0.128210305297164,-0.00788402565730362,-0.2721726910601489,-0.003859043780714855,-0.043134532301514865,0.013190968069166828
0.51,0.1416017122673539,0.008882664089022822,0.04156316555382089,0.009522011461292895,-0.070264238648399,-0.000933536152578298
0.52,0.15191650603657195,-0.013110834769332155,0.03692566919130433,0.011859336845101643,-0.061367676927122805,0.007871696370867654
0.53,0.1690489749156229,-0.00803085220058772,0.03331878817064486,0.0058944649739182745,-0.03695594598680573,0.0027582655114145064
0.54,0.16111958435031834,-0.0056046629601164116,0.012529019571500561,-0.0035718201427423183,-0.037091072005278676,0.002826926246926123
0.55,0.16134934068556833,-0.00983028360503151,0.03045621783722693,-0.0035686311580188776,-0.047633177335845246,0.007146704920737185
0.56,0.17436739644699378,0.00443767369349719,0.021007522102062765,0.008855063976348547,-0.0532155890838687,0.0005020108560136024
0.57,0.1897584286494409,0.005470105767787967,0.026593225716311918,-0.01907815476487544,-0.06006894798860084,0.0032766921375018397
0.58,0.18358477786048882,-0.013112247506214713,0.01641314476211569,0.007845529110664894,-0.03897471421295047,0.00657867828352106
0.59,0.1829390353230153,-0.0016214876375872933,0.02453672116958898,0.011269620152210147,-0.04722851020125249,0.009582187072717428
0.6,0.18231798978086575,-0.01777604456926595,0.015400581714312451,-0.017920691356475817,-0.038549928168935446,0.014841622673575687
0.61,0.2077340807670601,-0.013802683749660084,0.004051255061325464,-0.010972661630982473,-0.05554295463645381,0.014934122508119752
0.62,0.22083197341861682,-0.006573669828868343,0.9048016089288899,0.007878693741408704,-0.05035528821766518,0.0006737274046541594
0.63,0.20346410279365434,-0.006311624139833385,-0.021210548992760564,0.00522197939786251,-0.04536856878517479,0.001854951816775253
0.64,0.20797962716362214,0.004233550564026896,-0.0223004355087713,-0.009357256213159987,-0.06404182553490273,-0.005977113668127431
0.65,0.22175920894345888,-0.010310706704290918,-0.01829639249584791,-0.0015572554678634507,-0.04269997342506031,0.007759469983839104
0.66,0.24685537063244892,-0.01371547282443214,0.2846685465955667,-0.0037950797159482653,-0.060504826571662874,0.0022444953023120157
0.67,0.2340642013257507,-0.014391174545370942,-0.042127997651248104,-0.012976607479412126,-0.05496082152267549,0.003379203945189554
0.68,0.22926539021869602,-0.008803884529175217,-0.04119751571849763,-0.01001920221190547,-0.05384585423782427,-0.002460835823813933
0.69,0.23553022412073765,-0.0005440619686439621,0.007948388447087042,0.007444134886922764,-0.05164834345559573,0.009157674156464736
0.7,0.22665268693495536,-0.0040390442999395015,-0.014750658565893505,-0.0007068191968152898,-0.027154775997650937,0.006655383521497307
0.71,0.2535394506795283,0.007325804216818617,-0.015266099106318855,8.449245166220073e-05,-0.03349407822711335,0.004649512557439036
0.72,0.2475230989623185,-0.0190762261058995,-0.012101758215509819,1.977734542821187e-05,-0.06055028623309644,0.009371942700829496
0.73,0.23602771929612693,-0.010333058274216916,-0.001976846697320546,0.015137693780993125,-0.03518537856958099,0.019670907853434602
0.74,0.25041435873821494,-0.005148283880486953,-0.018280709536537623,0.012574839051748235,-0.046237843009263334,0.01642843530591719
0.75,0.24493639252905539,-0.013681761418923797,-0.6948944695098175,-0.005465193987973792,-0.031000100371429827,-0.003585865268225791
0.76,0.27159460227592824,-0.0167016070346966,0.04016350011021605,-0.0032032338051445662,-0.04439538840720408,0.02960474920383155
0.77,0.26072702433418754,-0.02962263208189656,-0.1947514148550537,-0.00016642113196254586,-0.02828250197567312,0.009171171117919017
0.78,0.2627194060723964,0.0038805942812740624,0.03422336361571214,0.004921212366393267,-0.05404893424924889,0.003314335830540476
0.79,0.26916056499381547,0.010453190546995925,0.02058073281638833,0.008184356268030036,-0.032438047514795176,0.01381067154112009
0.8,0.2756256610155286,-0.011037960077271775,0.026627871290118482,0.0017404179369986963,-0.04212245096881437,-0.0036899705913716547
0.81,0.29375319706190683,0.009953124965170465,0.02710764228536664,0.0075850725118348965,-0.04821824964477608,0.03466001879404616
0.82,0.2914975312462984,-0.004394196128613403,0.024796912428493502,0.0010154586882441005,-0.05560127876783335,0.022126948539641138
0.83,0.28834045271250897,-0.0022258500325358947,0.006606809237704698,-0.004983711550005893,-0.030234601099590933,0.0011120309041662193
0.84,0.30117887637285845,0.003291110331056923,0.006778479339952645,0.007140173961805831,-0.03451459775319821,0.013111840174626004
0.85,0.30300557804056116,-0.0031254743370231035,0.005552752022733659,-0.010411538780176945,-0.0444407170285948,-0.004781430568137153
0.86,0.2974071714868727,-0.005018787831868817,0.009611409189659683,0.0018411443303726755,-0.04405822856771761,-0.007383121965890305
0.87,0.3113812024596393,0.004653027914375964,0.02888600663343098,-0.010955302719691518,-0.031900231217096425,0.010993407772308145
0.88,0.32577859643226253,-0.006469888519839473,0.009784771830144902,-0.009382820318790933,-0.04611170086942385,-0.009976056153233527
0.89,0.3176017116095938,0.017193550233835685,-0.0011122900594598487,0.005668661727996171,-0.04915538272918288,0.0016562439437713366
0.9,0.3213309624785517,-0.008914629654675875,-0.011861203607597248,-0.006505152179186381,-0.03187231238410149,-0.0021284054210691777
0.91,0.3467466788952332,0.00231773817462326,0.0059009186955323424,-0.001332627632306432,-0.04710888045234765,0.005508277829320347
0.92,0.344642109200225,-0.00210257310608047,0.009812578412113119,0.0024289949795799504,-0.05725676119382693,0.011222315756421162
0.93,0.3307351385618583,-0.021412114571168057,0.006682020778987402,-0.0018251542964860892,-0.05167268588904586,0.015770380380008296
0.94,0.34487338485406516,0.008931937943854405,0.004398991089271857,-0.013116286395762915,-0.04950267276581554,0.005551510429228502
0.95,0.35096721479824633,0.005685953284415889,0.029864496954914714,-6.77624176990699e-05,-0.040566543950667354,0.00900817209973881
0.96,0.3527437110119341,-0.003146993631857,0.007785824562043768,-0.002188580353726793,-0.05231714463170761,0.0036034623896530537
0.97,0.35724345494057297,0.00858212682201809,-0.0013519175435218172,-0.003138084701558948,-0.03457090249598411,0.0025759733371703356
0.98,0.3676298388117415,0.009531772813299795,-0.0019759301868224576,0.0073665715295640425,-0.054902598040083184,-0.001086798079727308
0.99,0.37968080525557474,-0.0032353805618954433,-0.010579454189574719,-0.00220220239976959,-0.02614545037388518,-0.0004994786918169291
1.0,0.37652037911704445,-0.004887719851154227,-0.01577360868852903,-0.0026302703879396913,-0.04181188094269048,-0.010920718270566895
1.01,0.38439351751815914,-0.0029618838021099234,0.008895317423699372,-0.015102933222158306,-0.03919211696053436,-0.001191488595602648
1.02,0.3799788052389884,-0.022452638498901563,0.013281432881002062,-0.003680904327406664,-0.039993492746637,-0.023699313413146236
1.03,0.39285709662832174,0.011956246248171029,0.016954895433083136,0.0074023581972339466,-0.044669295916986686,-0.017681536775671684
1.04,0.38236526745509125,-0.01674671197298564,0.008848871071152814,-0.015276183755724693,-0.05519213876330199,0.010881664976824228
1.05,0.38588103927178724,-0.001853948497332658,-0.3069262412689529,-0.00027255924462573624,-0.044070492220618075,-0.012955786111979544
1.06,0.3395310844037645,-0.0038400755211603415,-1.1271412127650942,0.00719106769172779,-0.047919009970999876,-1.715558906738952e-05
1.07,0.4134785225517118,0.004065144825622202,0.09016164578883694,0.0025348886516948273,-0.028389720345353926,-0.012143412881747508
1.08,0.38198493678054674,-0.002445023656613945,0.06707286031298165,0.007668696629674874,-0.03015816582173391,-0.02011226924951859
1.09,0.41908124186917667,0.0037738111853086367,0.05792953541667572,-0.001845488991147934,-0.03886975111873944,0.0023296244923156663
1.1,0.4077670245163786,-0.01112124234810184,0.049672451711609514,0.03324016652519786,-0.04340583349850026,-0.010143859091013943
1.11,0.42431088150680885,-0.014989053224181061,0.05130819414135866,0.024759315741971034,-0.03810148382966354,0.0009259072245179963
1.12,0.40685023717448054,-0.024605666010926248,0.03932872351519498,0.005670971524722551,-0.044567828662462804,0.001474194228231065
1.13,0.4236341336304474,-0.013922254138139177,0.053572945951384426,0.01631159604323251,-0.037526586968890246,-0.008095162921003764
1.14,0.40996308772183804,-0.010348659886921805,0.029646131228254165,0.012932716138129298,-0.023954587037802816,0.0019193617448504982
1.15,0.4512965319081259,-0.00807540030026019,0.03589278195023042,0.01518728334537153,-0.007700358177940347,-0.02275790821201159
1.16,0.4331098155733775,-0.014021191567392555,0.044666157283419675,-0.003650359217591319,-0.04033024779845325,0.013094740146954983
1.17,0.4756682516214593,-0.012541245653857018,0.7735524205444426,0.013921302921476378,-0.019226984551634275,0.0034631462816068987
1.18,0.42852402017957125,-0.03186257196546386,-0.684024125320836,0.01301947960946163,-0.010823487847087802,-0.013713661509898497
1.19,0.45600083213006376,-0.0023009682671590297,0.041476809203248935,-0.002945771580759678,-0.01614850584094014,0.010369178970094886
1.2,0.44667752231690094,-0.008054081602477545,0.01844881455069467,0.008910567689203171,-0.009505155083861988,-0.01112829604155332
1.21,0.4461903706299629,-0.004354271780833896,0.028685275850310395,0.010359745197662251,-0.02701489853921282,0.00046233232036344994
1.22,0.452452611435184,-0.013515300487920719,0.04310032528336112,0.002853148953538846,-0.0031294362388432344,0.0026879369440240028
1.23,0.4201122365908668,-0.013195951193823613,0.02397356321970612,0.01433931137508307,-0.042676579135988796,-0.003173543816011368
1.24,0.45474435181119516,-0.022928365497826765,0.04337128869907042,0.0011069768171148141,-0.03947047503319105,-0.005474828222217409
1.25,0.42535940060963195,-0.009387362417688254,0.018767913326199613,-0.009981102250981602,-0.03495032561965414,-0.013528911227584657
1.26,0.44957229607369953,-0.011947896091371858,0.027249442380106827,0.011742660791441645,-0.02830698917280079,-0.008256659323296268
1.27,0.4671178202849215,-0.01249106880407697,0.1652707648618787,-0.008188871379148883,-0.01729846307614317,0.0033019219861736655
1.28,0.4526927596529233,-0.005529337084326498,0.020185892249470556,0.009234921927871412,-0.041229339651864316,0.01923315376142845
1.29,0.46454290016638705,-0.020738389042583377,0.02100766715965211,-0.016212727070582342,-0.030471291412172558,0.002004408711378543
1.3,0.48646137386474136,-0.00552166239321362,0.8387370794749712,-0.004699546153290019,-0.010268315026765087,0.0013473462716485259
1.31,0.47338315681473364,-0.0221074123544565,-0.10799671026367734,-0.004763121366476132,-0.025763167046059767,0.015480171328967285
1.32,0.48472548485182865,-0.02279926759432007,-0.005766890561668745,-0.011087243503450236,-0.021839667938032763,-0.001801929682847522
1.33,0.47514969862495904,-0.03364404756930313,-0.013046882497027668,-0.003509274689726898,-0.002186609564406281,0.015212230023278789
1.34,0.4689796402287694,-0.026988693546141522,-0.006896113193684265,-0.005145075328946301,-0.004042155729075739,-0.007795963632891416
1.35,0.4638901371193903,-0.001770705448955974,-0.014562746977344235,-0.004915670999852075,-0.010434840568553804,0.010275708055659367
1.36,0.4634969387044921,-0.011287161519180827,0.019450188844607866,-0.013336031559959414,-0.0057128963634758174,0.0014807533255022846
1.37,0.4748417848101838,-0.027725243353299366,-0.0165410972442738,-0.0018502848448854526,-0.020605664473032914,-0.02006273593162074
1.38,0.4766829811995442,-0.020830196331500316,-0.011809797925410004,-0.015014961530890662,-0.016659869392308152,0.0028591991838048617
1.39,0.4626340564617746,-0.013973319950536666,-0.2367014039369726,0.0031782014748315893,0.004261526138390677,-0.010481231889870282
1.4,0.4676694144855245,-0.008261505200315947,0.005080843381065379,-0.002647677536026214,0.0031934504026994576,-0.003374628541208924
1.41,0.49345820475714636,-0.0064984925013048716,-0.006830357564090644,-0.012534242793458852,-0.01570324162966829,-0.0036394643413311095
1.42,0.4567059442395672,-0.008442624326060497,0.004818921389666633,-0.01319868919433838,-0.022329458975520973,0.006339587397878859
1.43,0.4988213176707573,-0.017935042222364313,0.015805979453157884,-0.005970003344154955,-0.01612436152460168,-0.009943378618933973
1.44,0.476602401420598,-0.014498728336527517,-0.06788778631058062,-0.0034533322666570943,0.007483933519096972,-0.0012664078655156227
1.45,0.46207279691988207,-0.007422032706707307,0.000800653618003919,-0.0029043699735042416,-0.009326569997346034,0.011434925526289712
1.46,0.49163216697130185,0.0004645011870115477,0.013636165169414294,0.004229358789741049,0.009000275490866686,-0.011691437020067039
1.47,0.470548378038792,-0.014339571557981809,-0.005383130910995647,0.0109240523958944,-0.003801767567745282,0.010120221706819017
1.48,0.5017483877086146,-0.007485667626235957,0.19021837034129485,0.006785716111415483,0.001992680834446745,0.005075324301596237
1.49,0.49336244211249203,0.004492001695057162,-0.010910533193924075,-0.008634333475191807,0.002963379896515179,0.008025773019462832
1.5,0.49148491505494935,-0.015450126163360594,0.0063311492468451115,0.011040168037309657,-0.0047529678850414345,-0.002424394985829182
1.51,0.48108737841872,-0.0019692465618554762,-0.006543725431668458,0.003401215440007525,-0.04061210160048653,-0.0022886816012942087
1.52,0.4865217667685469,0.0011417101944623774,0.007046855679162469,0.00942294992392939,-0.03385763795149256,0.009519644062334388
1.53,0.4721443230924088,-0.0061859373085388115,-0.007008839503348073,0.004683197015577759,-0.0017485626125824695,0.003139358144720503
1.54,0.5001647808049297,-0.005086539754164002,0.2927590598620182,0.015202253075863044,-0.005683141426665286,0.004884299960125061
1.55,0.5132095029485131,-0.006949910881919213,-0.011502553300641956,0.0013918762853563052,-0.0037945906797291337,-0.00140103478645424
1.56,0.4909847730247581,-0.01706771540800713,-0.010999817484641839,-0.006841314377065706,0.0058557762390802764,0.008355790016417893
1.57,0.511106498874593,-0.015145745940241238,-0.001822081182657448,0.021755054929463138,-0.025741874553641513,-0.01310148661067985
1.58,0.48944614223023253,-0.005612204942420209,-0.0034631222643935547,0.009962584646229462,-0.007126290387418427,0.020569920027530046
1.59,0.43346349911623727,-0.02896761742388835,-1.1534093069002735,-0.01068380448697209,0.0039218174517482865,0.014226873078049462
1.6,0.5109802149309783,-0.009851270563129452,0.42504985119500077,-0.0011432364967250402,0.009703029774137313,-0.007645838369973618
1.61,0.48399876431093247,-0.0025310702328251444,0.007514295671473787,0.006229563807848519,0.014580016056144302,0.01768395434385392
1.62,0.511178713879197,-0.0359224308295322,0.025857241610257285,0.018334366296043368,-0.01105821912606513,0.009424330233756668
1.63,0.48061628369651704,0.005985913235834948,-0.22316793496410753,0.0077455466409232605,0.020685857727315324,-0.0001997299378692233
1.64,0.5219848688331437,0.0013503368949668061,0.49139317199499427,0.00983304201341862,-0.005480591772845751,0.009273889586203706
1.65,0.49502679869984684,-0.008938788126502036,-0.000518382423164297,0.01042747555824545,0.010655214097741207,0.0191748850916441
1.66,0.48674784650240016,-0.024613083860176993,0.03437890565719367,-0.012718931990505267,0.016646232017339634,-0.0005032801860961876
1.67,0.4956250605156873,-0.02775264449632856,-0.10746893663925743,-0.02302690333856161,0.008567797152774162,-0.0018676091503611108
1.68,0.5009412011710513,-0.016659492523371122,0.003046712849254357,-0.0023771332075242,-0.005190171897046,0.007441771168385729
1.69,0.5004829924899795,-0.021541227099823673,0.013980437456279865,-0.0005484873094281275,0.016569434697676612,0.012822069683277546
1.7,0.4820898090067598,-0.021983170253081157,-0.003777429370351722,-0.01674331026609672,0.021951931668851673,0.01889863094095566
1.71,0.49744351690131366,-0.0018827014856674564,-0.010624521640298052,-0.00655461731805886,-0.0019748226820807905,0.02996004076679497
1.72,0.5217136762072284,-0.011154694622423893,0.8281476577046168,-0.017230560487171902,-0.005427089072635517,0.013785053825417642
1.73,0.48040126498725116,-0.019754841911784827,-0.05289114594767543,-0.013030870280993482,-0.003793338487069982,0.01720516459148211
1.74,0.4938826573876591,-0.0070859873275397325,-0.12940878671980544,-0.003847269206553829,0.012417613136586597,-0.005354092079552239
1.75,0.4992332408650495,-0.01410465551487815,-0.015489160276802166,-0.01124543771499478,0.024305528581409788,-0.0055855488361292865
1.76,0.49008366485124033,-0.009317333130800132,-0.02189339482037916,-0.00902896383809563,0.024988943567086516,0.008996913770462732
1.77,0.4808029381434505,-0.012920175385738773,-0.023632041424800132,-0.005189701148756878,0.015238659343376492,-0.012469410071810714
1.78,0.48136899553707685,-0.009948512179392239,-0.0391983079420338,-0.012777994780891328,0.0248642873788736,7.396986899914533e-05
1.79,0.47540519294455946,0.0012664507903408905,-0.02974695504889288,-0.018966468885667706,0.043482838677726315,-0.010790138568182592
1.8,0.48393556066554566,-0.023310820098982644,-0.014274451873311934,-0.003331406690856257,0.05116392839481079,-0.011373922711553913
1.81,0.45316115270968166,-0.016970901029040787,-0.5327463582605014,-0.012344942949331156,0.025060930814507297,0.019487081037497585
1.82,0.487318052613921,0.005126322502804785,0.019879624765071893,-0.0063457922116541485,0.011892855513941616,0.00036436975060591046
1.83,0.47868386854639705,-0.015954773499443145,0.03963037338431322,-0.006737359837077787,0.027845465389317838,0.001764146876975487
1.84,0.45570922138328,-0.007834914407004557,-0.010167911165705538,0.004399936671701072,0.03326022228917711,-0.0015136070915392013
1.85,0.4695398289533223,-0.018899238241048624,0.001819852160444506,-0.007166559384837016,0.040142037631681504,0.016777017664683
1.86,0.45757115949266347,-0.013202694954941724,0.0031585648518108527,0.0004921468658914234,0.016016339290622156,0.005698539031188967
1.87,0.45997272597680283,-0.004751992680788828,0.15897614223539996,-0.025337698469267114,0.024736878858342342,-0.0008339938895053356
1.88,0.4556775050556846,0.007656838352210262,-0.008465841346128218,-0.002991830952071098,0.024715312488705034,0.008751824966536915
1.89,0.4725707780163174,0.02285881114058303,0.00999127061988208,-0.010903112605940759,0.019321025091443893,0.0033543137135940756
1.9,0.4628139003348358,0.011394822969521351,0.004593990269600043,-0.00902216120899798,0.034450284673490095,-0.009075206134048865
1.91,0.4379151277092566,0.027080927203883644,-0.02176945583155534,-0.0027333203309127144,0.02489992868664436,-0.013424767389617643
1.92,0.4483514285624406,0.006103398099591022,-0.006237713888615459,-0.021718772056143205,0.03506228702723722,-0.005667069666131565
1.93,0.4434183741575576,0.029143635199863988,-0.005739851058479702,-0.00653797748476128,0.04168179320215806,0.0058340164541212675
1.94,0.4555834767173635,-0.0048352351065528605,0.01110016549980971,-0.005695503753438128,0.026741170390282995,-0.023713647303246252
1.95,0.4290608236928462,0.004263143886488976,0.0021137648560414007,-0.02036908206053049,0.035973120348729876,-0.004642951789045024
1.96,0.43859584408181357,0.005545908811477593,-0.0205708036024417,0.0006191356567981816,0.020963570800845672,-0.017657709818803696
1.97,0.4118217720641082,0.004201328816037081,-0.003701569053353056,-0.0011799807849063688,0.020035722803364818,-0.012073179025460897
1.98,0.4277183767234347,0.019827850524227284,0.006837734325322829,-0.0033559698901052806,0.02118635881307597,-0.02352423234027503
1.99,0.4199555223275311,0.023120895263331043,0.0005119959185779042,-0.026578988087987022,0.024948465208496688,-0.0011216959567659102
2.0,0.4137455286567287,0.019503719151176484,-0.02256799485666745,-0.010185765345763069,0.03700573101809438,-0.023342828053601713
2.01,0.4363867660508153,0.0010508159200787095,-0.002907509441444255,1.8318703496295746e-05,0.022056162679161023,-0.0146747281236947
2.02,0.41521626298508485,0.011592121395905722,-0.31290603759183805,0.0008906980065737403,0.021398312756587108,-0.006690644981903899
2.03,0.41638520546729835,0.01647531923292084,0.01986270832446703,-0.003470138313533308,0.028860809780624823,-0.004345586871520274
2.04,0.41551839996573897,0.028523430450301545,0.008836331407009883,0.01858816338087569,0.025937501703917037,-0.013231050948201822
2.05,0.41191926208383234,0.01922429499307464,0.014060546949163026,-0.00019587906156612843,0.038232704615995476,-0.0025716211339456138
2.06,0.3863384067315786,0.001494923469230346,-0.004333190637761384,-0.012987830871315473,0.011938824746255355,-0.00932558321035601
2.07,0.4200300542045718,0.0408150528248517,-0.02276806737736027,0.006462731087970422,0.022661332067276104,0.008132364706370968
2.08,0.38884906111570733,0.024160853561033792,0.01114083270650967,-0.004772097896902767,0.033066647927846936,-0.004471636256662012
2.09,0.40547936363778403,-0.003279366652969037,0.009706193507090316,0.0006496765266484441,0.03151193564275589,-0.005839598294934835
2.1,0.4047093830730779,0.02140431317371331,0.013517966418605845,0.01110913789393949,0.018705166852388905,-0.01961370090071217
2.11,0.40454512554506555,0.02258700920815994,0.010967067171338031,-0.019347851399355232,0.02387387194350469,0.002298524685840678
2.12,0.3982038063675242,0.005839112545577715,0.008852172277857302,0.00022401316057307384,0.013769426842512335,0.00676411153201675
2.13,0.40145794384319966,0.0066311625555011185,0.0014007112881305934,0.008288623611877665,0.029221594921543415,-0.020555166639030537
2.14,0.3971450655647835,0.023660774749508354,-0.0014574158455320013,-0.007726196096968436,0.033607015278098146,-0.023354022702711336
2.15,0.40178654790209956,0.02300793006665694,-0.0008014522798749455,-0.0033274859790985434,0.024103314043273552,-0.002155222804858375
2.16,0.3831019597979704,-0.004868275181814055,0.02229298005316971,0.003032170087406032,0.013330631153306401,0.0054437939025200124
2.17,0.38294882263336666,0.013205137489227923,0.02326349167323563,-0.00592247553642478,0.02443332896716212,-0.007921793277178738
2.18,0.3922131288178618,0.01550778746726953,-0.0007913254673619884,0.011794071431588633,0.015595530389357813,0.002377479549700739
2.19,0.3787381750836625,0.031986375814079045,0.013635972261718775,0.0037467247195202063,0.01744515667299512,7.704223419940145e-05
2.2,0.3477177141574177,0.010247498512133994,0.0067126120163482576,0.002873359997917889,0.01520898097835186,-0.01559888094458979
2.21,0.361334335213544,0.005716839072717063,-0.0032303011979597134,0.009105360854107528,0.019515600645784094,-0.0032710505588285552
2.22,0.3830227820145517,0.03955886531584426,0.010547396454274955,0.0187616597211068,0.02164348262942599,-0.005438344492213147
2.23,0.373450169519959,0.021103120362164024,-0.012962186065371546,-0.001413842843430338,0.01785423054149038,0.00011271903812609327
2.24,0.37924212786695294,0.008873838059792059,0.024134452405071546,-0.010714723690444905,0.024532710430200114,-0.00032755799505172507
2.25,0.3794102117174008,-0.004922977122983443,-0.006106071270613821,0.005779443345294458,0.029267703675946017,-0.002167872349478517
2.26,0.35546545060347945,-0.014838722301657056,0.00431574806208649,-0.0018773379008025538,0.00798869757058393,0.003605043614963673
2.27,0.35926102171352897,0.019559324342146155,0.0019251884716043341,-0.006883038546149234,0.004481139548207648,-0.0034895481661915903
2.28,0.3674425975558108,-0.007105941118367039,0.009822578528036627,0.005932585609670032,0.007834691879731657,0.004281930092767694
2.29,0.35934195702387217,0.004576529360512675,0.006296131103517793,0.006649324376627138,0.010832068657526329,0.01449621019312522
2.3,0.3479601688711408,0.004838593513972471,0.0034199510142809576,-0.0022604803312847206,0.023468874452307005,-0.0015339431503325976
2.31,0.3709237201905475,0.009237498411200381,0.05549756636971788,0.012860294496505017,0.015114183951795996,-1.2799406088768919e-05
2.32,0.3356375333737432,0.0072871106951063625,0.006697565637969156,0.00033476773461764615,0.025423490257246332,-0.006233733616796674
2.33,0.3417581115926892,0.01862458799049789,-0.010377299390113094,-0.0011467673160582802,0.024374342519259212,-0.00379980621687224
2.34,0.3308431217476676,-0.008389483614538593,-0.0072595840273538,-0.01780853668598799,0.02021380673589728,0.004631710492701334
2.35,0.33714603478287186,0.014739836205755759,0.009140662811661879,-0.010823584249810883,0.01620665863163122,-0.0062104976913889215
2.36,0.36544835495357225,0.014675230339919344,0.008823465303825492,-0.0021381505635490656,0.020055413386246064,0.009783034878941659
2.37,0.34607018157911223,0.0015284695235862691,0.008401465379526034,-0.0069252481490653705,0.019827762489767822,0.004953881814445251
2.38,0.3471203902049127,0.00275345553569133,0.006797845469898752,-0.0018943341705449873,0.015099760236452996,0.007724779676868784
2.39,0.3558499333065347,0.007824875016852098,-0.0022861137438308404,-0.0013424460450085242,0.041454237847246674,-0.0003023471221605201
2.4,0.3497575279982969,0.013409405085878932,0.004255608775366582,0.00841282573043321,0.021280539314691264,0.01701776774805242
2.41,0.32743277222727457,0.015064459968498957,0.004337266578117609,-0.008412099089604774,0.0237702993981911,0.006160274075491502
2.42,0.3580190769002742,0.015841776964124667,0.011792470864783824,0.011592158944537656,0.013085431774654904,0.016716888345576508
2.43,0.3328250687098563,0.011351486665811407,-0.01324383727717307,-0.007165445535609914,0.038022804769612464,-0.009634554875055466
2.44,0.34681544144444953,0.01314578941056626,0.4191807493214392,0.004816913673119211,0.03453123136238124,-0.004269732887164451
2.45,0.32212186109713115,0.01991206105931828,-0.3808547405842574,0.004757491774818013,0.020915996617766358,0.012456244120997637
2.46,0.3265096993211177,0.018147316940504154,-0.01376878568649126,-0.002662415317764511,-0.00905519786267284,-0.0008089650752697549
2.47,0.3318228183187777,-0.0021980011392716044,-0.014786263839583005,0.012033762660013977,0.016189785225652113,0.01627402556520363
2.48,0.3277027333914903,0.022993158660112707,-0.006771884951405318,-0.013744439538698664,0.015656986208626524,-0.013547577479068743
2.49,0.3288386910469141,0.004183859028357064,0.00025676785400425943,0.0043117163077799545,0.014633992617622413,0.009827155085181534
2.5,0.3381170921587468,-0.012775950657409885,0.5574274746348054,-0.0003071387106070151,0.013506961824061255,0.0013909287875560838
2.51,0.30767415973036416,0.012165729847884716,-0.051656494407945,0.004838193737277533,0.03525651494956194,-0.001109128034321275
2.52,0.2964671450810762,0.007949240770555222,-0.01188217029765702,-0.009423112292409103,0.02748193431740406,0.018621054172813976
2.53,0.31439621104633514,0.004817833893801674,-0.009796353010135088,-0.002579825454974585,0.019178593665059914,-0.0044142731641427044
2.54,0.3019359602166483,0.0033366729096019334,-0.02660036579057408,0.02018986350061052,0.02637510207811328,0.011181383795590142
2.55,0.31337817447896443,0.004017640649463662,-0.01743696448168545,0.016760099966005512,0.0139867204731599,0.023265302861322994
2.56,0.3041243005582004,0.007943143431582766,-0.026990566151664605,0.008894897718259534,0.024950593151565795,0.0040680230409927045
2.57,0.3039854316473167,-0.004047361188291465,0.18219116076433237,-0.006742358342369551,0.014511731824149186,-0.006499973519358246
2.58,0.2975457281744723,0.00024088673070172748,-0.02988925858958747,0.015365676657982358,0.02156981762323019,0.010036743065614714
2.59,0.2905148285243224,0.01857811723431216,-0.00979802082666835,-0.006576674672251776,0.02163894809646911,0.0005129689613958284
2.6,0.29063863564298753,0.006336102471408357,-0.029930090687669962,0.0024633214632880465,0.013966941895979088,-0.0032119324236143778
2.61,0.29701352614368154,-0.003678590137318409,-0.026652707540763806,-0.00945002276182054,0.00930794284295905,0.016887336461722052
2.62,0.3064439078062577,0.02235086434344176,-0.02791965224026887,0.001318915714721173,0.02548302478324617,0.004146897640057754
2.63,0.28830464619465523,0.0162591963128549,-0.43074418573404616,0.008322147165865018,0.016359590522369776,0.014183552018407153
2.64,0.27846075378476703,0.007460031154026587,0.0052939140387339104,0.004183859685256732,0.02810214102642003,-0.0023881062363673286
2.65,0.2978499695086308,0.005608932161306675,0.0041341194388789596,0.0013109627087160174,0.034385199630542124,0.01041721437691785
2.66,0.3096680030427195,0.009518089854482603,-0.011012953237308656,0.0007189258549039609,-0.00054597955075587,-0.011515521267922393
2.67,0.28926480402948906,0.00029827709107856613,-0.016291451217151996,-0.008124666258025487,0.025970785047017764,0.014664645387622015
2.68,0.2921682117968045,-0.022090994207024806,0.00383779912838967,-0.004446727998919219,0.022201303255241618,-0.0031368702207889092
2.69,0.2921025388169392,-0.01023675911755834,0.012076647253658424,-0.001385626736156477,0.037004587036564215,0.0023273126740597718
2.7,0.29227819839108443,0.01724496309324678,-0.013840125003327684,-0.0018841506108533985,0.022085918419613736,-0.006000237754251211
2.71,0.273389915530883,-0.0037212123386609827,-0.0033274243567797653,-0.005626876358065723,0.021232290849033584,0.0029532909244200864
2.72,0.25455986995599544,0.0035544183946391236,-0.022880493348625824,0.01144541044158893,0.016136432235948597,-0.0036164121815468963
2.73,0.27558604416915244,0.006327534491872386,-0.01563053886361412,0.0017852923671837226,0.026714229919612073,-0.011538405897523732
2.74,0.26403392625079347,0.009375549669907193,-0.0036627656305410917,0.004673684222537387,0.008725414444268179,-0.010273064851096898
2.75,0.2734406610172634,0.011608760517229698,0.0015360449844016221,-0.0093561730598356,0.038335862730650476,-0.001764385850056103
2.76,0.26943622885929974,0.015975392717587862,-0.00047033702026309885,0.003691728749909796,0.01376672204771012,-0.013872578723530146
2.77,0.25458064423818744,0.017713243200289934,-0.0099605421274962,-0.008325182314361109,0.017747645703586345,-0.0006553979288006004
2.78,0.2683896502159159,0.0009487914699465574,-0.004952852486936213,-0.0037043229476575673,0.02550084338626231,0.008857163669200637
2.79,0.2730145560765766,0.011711416444165117,0.0033240022205743482,0.0027422750315992525,0.039862609857086076,0.00012945931306365243
2.8,0.26693968908205123,-0.0015443375804993758,-0.0024086729317336947,0.005532356606663316,0.02728900236340054,0.015085064462842026
2.81,0.25283881133754954,0.008010960882435155,0.00047319088765131277,-0.00039561820802836063,-0.006460722637080571,-0.013018180784146027
2.82,0.2593045754527091,0.01159006745435054,-0.012626766391736662,0.01702918679985,0.015388677940031462,0.009266071731073558
2.83,0.2727325797849218,0.006310826107480081,-0.0002711320453073927,0.00904968579435406,0.030383606635667342,-0.0013507370548449086
2.84,0.25367563705232776,-0.006251318259556191,0.1513722191681511,0.0003552226417386879,0.03438016252946184,-0.0010167128355813052
2.85,0.2526675291550859,-0.007087551042808806,-0.024395403096030062,0.010118461551665233,0.024003571035331916,-0.003222700629825934
2.86,0.2374237755947345,-0.004421043900683054,0.0006030074885842503,-0.006642793703214925,0.0332199580465906,-0.008965551419029884
2.87,0.2434828998579893,-0.0005278633253492692,0.017221405720577447,0.001602549208727897,0.032291695314551006,0.01105485425720418
2.88,0.24103925099920576,-0.0009540357142958965,-0.027546878206482536,-0.012256281828638494,0.011403310912884428,-0.007220883809130177
2.89,0.23051170142329644,0.006205500779872804,-0.002842524800528273,0.014408864725500112,0.047249907191566194,0.011747465624068781
2.9,0.24783088012890966,0.009656286796183668,0.35259826641890263,-0.00933795179224404,0.041688860093160585,0.00042835829599683283
2.91,0.20616756653264054,0.004266687470736343,-1.0347055991789627,0.013879192169923438,0.02678148183120372,-0.003721922424028334
2.92,0.20187327637829566,0.012723976267593836,0.019979807818977523,0.01609902274786579,0.040564302485566514,-0.005217845311143722
2.93,0.21914506209272688,0.01036726389217527,0.023548676330683603,0.0022655799278866666,0.03864396684222899,-0.013253629015677688
2.94,0.23084900392104318,0.012599504029373907,0.030151153390577265,0.007606498746823045,0.023512708188019107,0.001045159231468531
2.95,0.21299470259580766,0.011163220670480221,0.01641662718151238,-0.004241278808287826,0.04248797533326285,-0.003031967996952133
2.96,0.20582738955089194,0.023081998659788144,0.017728153864659243,0.003440673087902809,0.03654023620469506,-0.008129301197291628
2.97,0.20787922805784598,-0.001562729312795249,0.02188026960667119,-0.01536773604770355,0.011778207481985006,-0.002870437874183311
2.98,0.21672712539829522,-0.0011879434355095415,0.04084594766212886,-0.004401446171880383,0.02737999178783897,-0.015531539508402387
2.99,0.20663268711935573,0.0001015564421295509,-0.01646396041448483,-0.00537182330491799,0.02663438824996598,0.008922869693413426
3.0,0.20052953967376566,0.004728834118933848,0.016498416192221605,-0.002189799929813302,0.024525141587804507,-0.005201263378507714
3.01,0.20684767791236577,-0.015269045709816655,0.012125695132210124,-0.0064377762050387265,0.027277878011437905,0.007255622695645861
3.02,0.22061130885635638,-0.002711275842403004,0.02615649702402782,0.005494647744611164,0.016324136954497095,-0.0019089274465665198
3.03,0.22038517376661132,0.006797644742031279,0.0005817366680543647,-0.011529049961128478,0.05481139469628801,0.0020339880223283952
3.04,0.172306827155936,0.010515415032825368,0.00486300434920087,-0.005404575179102342,0.05991784506626294,-0.0078003385923221345
3.05,0.16750073321695105,-0.002469413594796635,0.015082107309798861,-0.011612899134848177,0.059830623410696275,0.0019651328585029867
3.06,0.1720857779054045,-0.009122235357042213,0.018366121635579005,0.015768139725142342,0.03739656028928717,0.001502773643505264
3.07,0.16751098037090356,0.01605311392452848,0.024641563322412394,-0.016677457998208547,0.03644067880065646,-0.022543531535518274
3.08,0.17545744637150504,0.016893966409021202,0.014699839896248998,-0.010617106287858715,0.03628678547954873,0.01691681881121275
3.09,0.1681662220188921,0.0002084636677998847,-0.4158262813147614,-0.0012232063663953656,0.02732199132644704,0.012453162666077511
3.1,0.15907489860037313,0.014735964274134799,0.012847446393662906,0.002699909925468964,0.026503160890759887,0.00745850377534598
3.11,0.15761545466325752,0.010584601002519007,0.028303398561459792,-0.010588104859276144,0.016745801451103454,9.313293550793544e-05
3.12,0.15964517715358612,0.0005517242682102335,0.029939930061729847,-0.0035686471630845813,0.021297061391078096,0.007710094093658085
3.13,0.16059113292272106,0.0006850984187026267,0.045033233417156475,-0.00960245832625374,0.03673251659270783,0.006977741005459591
3.14,0.16709639576774507,0.013831214892408935,0.02516287966470295,-0.015803470930735516,0.023717348484114935,0.015957763480361178
3.15,0.17119093897222942,0.005492542646876941,0.006413688491316924,0.0075422519065727785,0.011626694609760572,-0.0012841891687947428
3.16,0.1579575090830072,0.0039655510094080484,0.01932648997994884,0.012941045934217712,0.02848805074711238,-0.0027780778431647137
3.17,0.15175005592289073,0.01784787676066632,0.009511952100380637,-0.0012765952918043777,0.011509172975335515,0.0055693329246438595
3.18,0.1373863312821157,0.00023083522058313898,0.006777092840665097,0.00034095134476728664,0.030425411157671223,-0.01436995437562549
3.19,0.1262249978973717,0.008191019842870278,-0.009562082388989125,0.0077459382809382995,0.036870451401425704,-0.009828724869392319
3.2,0.13459479814273356,0.004058086764263375,0.030778311531440346,0.006815092766968922,0.000996102053276212,-0.005251533724284823
3.21,0.1352437605736581,0.004734135923392721,0.027974733122970795,0.008560360511698426,0.03522997709829341,-0.011423229588390931
3.22,0.11794387373576014,0.016251994781327966,0.021258645361613718,0.005667366965524802,0.03132941600807861,-0.004781367422308492
3.23,0.13660051186315464,0.006274781521502272,0.02353214828837579,-0.008309883542695759,0.018833113994394246,-0.02176456822942485
3.24,0.11871863517221166,0.006584226239049997,0.01638676577482064,0.002206211463638711,0.019858071248797113,-0.008315612707828116
3.25,0.12927962606510382,0.02991488410889145,0.01651641404058224,0.013726988797586423,0.03992824728956687,-0.008463434145904296
3.26,0.11972730218321154,-0.00324233768710939,0.004182681882172792,-0.003478854418617445,0.020566439285480395,-0.01501056316825121
3.27,0.12320560651237847,-0.0035315620275499417,0.02066563830710762,-0.0018511983934806488,0.0005279560482938928,0.0028039055299680735
3.28,0.11809269963215079,0.0021369390460900745,0.019817398527329673,-0.002072463499487389,0.02468152198089063,-0.021464033903858596
3.29,0.11886839976213481,0.011586673477654501,-0.003102523158385235,-0.007314361709385965,0.02356366565774454,-0.001977054404805828
3.3,0.10978028542856219,-0.014456908226863324,0.013576606501098556,0.0005318831577396201,0.006231587174844733,0.00801900865460756
3.31,0.11534887650719695,-0.009986606415834008,0.0027799821658121664,-0.005340436058163224,-0.00023599206239310368,-0.011401875901120476
3.32,0.1139200310146277,0.011254380677847252,0.0227080606962173,0.002199169589760069,0.01023192799725717,-0.008010212208060696
3.33,0.11539416643472854,0.02434885417157548,-0.00120619048692696,-0.008602564389646397,0.0215895583170774,-0.007623744747059248
3.34,0.11858166272965255,0.026591924743496295,0.023281385075684276,-0.005580837986653877,0.01981094090733524,0.007977787787917572
3.35,0.10101916785602529,0.006123596020269798,0.016236237561972545,-0.0029537668256529944,0.0018677339889130087,-0.013303853050513802
3.36,0.12535407401627593,0.015005312040383224,-0.001971835644630951,0.0015322717005888716,0.0007228226132031104,-0.013926035773537375
3.37,0.1161046968232401,0.01757338969734387,0.019946910953630832,0.007901641293546556,0.012548139427971911,-0.008806350958833937
3.38,0.09123257832689212,0.008147123006010568,-0.005625503760793713,-0.0010159995677012166,0.014007681771068623,0.009507474304445256
3.39,0.10995893453693749,0.006248847685281889,-0.0021337878204915634,0.001218928473552863,0.00939616593602419,-0.012417735437646175
3.4,0.10956613593150381,0.02236500188978241,0.02352080280609852,-0.0174331142513921,0.013087591564715529,0.0025753084352763285
3.41,0.12064212152717199,0.002854609808549584,0.013500717873464237,0.002744132757570166,-0.005536882104184326,-0.016054634151308443
3.42,0.09787848321149849,0.024035214269188636,0.00771448910499695,0.0022345364530685402,0.007921810590295557,-0.00881483997338589
3.43,0.10237942184912818,0.006072192967752967,-0.038035568224099384,-0.004709330134496213,0.0007099327859192515,0.007471441418906276
3.44,0.1081462271090955,0.019059492998591766,0.022594143208828972,0.01872524821962812,0.0036046263350000916,0.0045997973315835385
3.45,0.09155509848239107,-0.0034542604402163744,-0.009163156502417898,0.007826304143720158,0.021217680203214725,0.001232331835536016
3.46,0.08995894217901795,0.011498036727135457,0.057908629415965834,-0.013877393133852101,0.010591374129789697,-0.0024646041767861747
3.47,0.10168113555097093,0.0158626104668998,0.0014078235848894657,-0.003262635466832426,-0.010876266837384756,-0.009251197164081014
3.48,0.10193144156260063,0.019058806925111083,0.0077773483911204085,0.007866531330746756,0.011989938655600968,-0.02409081981185087
3.49,0.11913239714302254,0.005309470537530784,-0.006835546293681105,-0.007555359749023711,0.007384848213574186,0.003543754539683133
3.5,0.11629156951549997,0.022037575355505372,0.00566514904009015,0.01348873672565331,0.001409117701879379,-0.011933123796475084
3.51,0.10719868776769778,0.01913605113279751,0.01676963081357996,6.198422567459398e-05,0.007702714370685181,0.001383165261470469
3.52,0.10725435097178738,0.018475523273195613,0.0012323784937683093,0.02699386820806218,0.005884538756620848,-0.01189897226764109
3.53,0.1142793751361499,-0.0019477538733478714,0.002431346952190214,0.009926601144343385,0.008933373066785719,-0.009618804771946501
3.54,0.09319111524440192,0.030547402011759116,0.026113758075176394,0.005191443677173213,0.02238232803950042,0.008961419128253843
3.55,0.09665319908714547,0.0010850330360986623,-0.0013718187294198634,-0.004988306615053028,0.010839454357345998,0.002784949258927718
3.56,0.09834265654097545,0.012410383748127654,0.005159997075932485,-0.007667709435744558,-0.0013511903473764344,0.0039672701862832225
3.57,0.09449518143042808,0.017179146150907116,-0.012280864901870636,-0.013586598005281635,-0.0019128736129913181,-0.006627713432459416
3.58,0.08802043962267833,-0.004893873151703528,0.007924798327896304,0.011050029039174175,0.021370034163445375,0.005176075560913229
3.59,0.08828761388678867,0.010285146019753149,0.20121642738186699,0.0038286062630797603,0.020646067561806404,-0.019473533115635138
3.6,0.11078507921799843,0.003731728222934993,-0.006796440158084803,0.002344029679370651,0.006614805689329758,0.007620787104536361
3.61,0.10505290376123262,0.014035673796090187,-0.009710736810096786,0.004542744280932885,-0.006719918215599063,-0.002955317080959018
3.62,0.08526853228459005,0.017239266580291783,0.003863375043777379,0.0012855209011100705,0.0081768600161961,-0.00969899495074691
3.63,0.08694548671844453,0.005638365053586252,-0.0013443717804277827,0.02252788009525139,0.021349402724333725,0.0007535419442009628
3.64,0.08489329311945948,0.00524038660749167,0.006622174948215917,-0.003334970956092564,-0.0009211441887045542,-0.008303052004606005
3.65,0.08826063245138702,-0.01121999270150583,-0.009931539757702716,-0.00463838984507675,0.014471174907156794,0.005906550292634683
3.66,0.08389373015526588,0.011528701758230831,0.0037205855820563413,0.009454189192175378,0.011472459603931019,0.00030752861300524905
3.67,0.09264931993647975,-0.008664309463748394,-0.00040953621169499167,0.00018962976613045104,0.001336610929427654,-0.022031263184831985
3.68,0.08445558243766915,0.010584553404365158,-0.0033882875603690596,0.011329922630167223,0.020824711339543854,0.007361514093278804
3.69,0.08192934437978482,0.024272118298269117,0.002352260936427049,0.006580162572943267,0.010582345157101092,-0.0042171602720902195
3.7,0.08111799417008764,0.005109065569138555,0.014062008322388663,-0.002070605384287971,0.009066285681514288,0.0007280855539040577
3.71,0.07494809373221611,0.012704096731861547,0.007051795316469663,-0.0022760587245247736,0.006095152314793966,0.006699082686079643
3.72,0.07895493366275402,0.006833298508771839,0.025883512429543162,0.0020561123798893645,0.017909238312565662,-0.005923251785363636
3.73,0.0766057346904542,-0.019865069723910587,-0.007947246621980809,-0.007286645468678743,0.009594941073334513,-0.006222630070729307
3.74,0.08109718404599442,-0.009553631711810931,-0.0002817232808439953,0.0064029006609341785,0.019737508873798573,-0.0034822554535741696
3.75,0.0743154363105683,0.01059043178201277,0.012586638502083485,0.027689591061298917,0.01707012067944763,0.0013627839747917315
3.76,0.07362438748221518,0.012831175139687566,0.016316712713464816,0.0075393102012125965,0.021895753860044408,-0.012072620421458402
3.77,0.05993006953670102,-0.009448766490008488,-0.007780941205314543,-0.014832138041559818,0.010379826074881022,0.00658417562698245
3.78,0.08009851453434741,-0.003925321583568146,0.009004978583589137,-0.002462038206881732,0.01626458289863333,-0.017357671960156668
3.79,0.06278014908069439,-0.011294950288626975,-0.009518823710342059,0.0021395113525069375,-0.008857294111993892,-0.003401998672199114
3.8,0.06759510441805798,-0.0008701983583527061,0.0014892133291069113,-0.0025429927800764956,0.02283534502391733,-0.011869007024808868
3.81,0.0625328581064046,0.009991845866297026,-0.007218487019308003,0.01722489948115928,0.015039500460751774,-0.011156083853021304
3.82,0.06974255040460961,-0.008371941817052031,0.009246307128937733,0.015003788823402288,0.014555819360213941,0.0005303097412047231
3.83,0.07426650079753788,0.006131278485201292,-0.0011382961123697938,-0.016852024959460664,0.011973230191524183,0.015984675143585692
3.84,0.06387148108903551,0.005880950050798762,0.0021350408710177895,-0.002391340085846011,0.01639093248809788,-0.00017222611815453427
3.85,0.07060233177037334,-0.0036637613899548264,-0.2760478180102753,-0.009505379679922462,-0.0021101113518894113,0.008039771063842753
3.86,0.06696807178005705,0.02078013715401746,0.001199512120010222,-0.0031962109933919903,-0.0036572260157909375,-0.008496674353276546
3.87,0.06261417319628018,-0.0028294600189586482,0.01703204430026547,0.000909974304585631,0.0004281407758735256,-0.014095277128061856
3.88,0.05001551361000843,0.0065468309145653505,0.00017573270441485073,0.00105090074493106,-0.001211986699727113,0.004169341897332186
3.89,0.05589668281666131,-0.008994380650387011,0.0150102126493428,-0.006574955868072009,0.020078628196058233,0.0009852474651731408
3.9,0.05752685282840397,-0.018558523973808246,0.02785222595443012,0.020263688369725606,0.027782490047615106,0.006206913453984078
3.91,0.07245541528586288,-0.008458757943856483,0.013093824097207657,-0.007325762000310869,0.017599531882420135,0.01712189487589503
3.92,0.06376574721056052,-0.008681355972282851,-0.49526774656849826,-0.0184911252464296,0.009917374205574772,-0.0016741204074430449
3.93,0.07470116658821649,-0.015588296764386132,0.05297503287602832,0.0075707560245209665,0.028381463424955664,0.003344796687727354
3.94,0.06393545307701948,-0.006709476559262426,0.02874507319753611,0.010098936342368182,0.025426563703792877,0.015294044870152342
3.95,0.06331587589368262,-0.00011556467237979178,0.029315276702799153,-0.004926741224812752,0.029898909707281596,-0.003450201471102223
3.96,0.0376929262613602,0.00698667688643957,0.0217814124533729,0.0026560474845797955,0.012233358692265418,-0.0051111511701093845
3.97,0.044512316175231076,0.00019506195651870198,0.013437689641346888,-0.007282280030259457,0.021876814814465663,0.0174834497054071
3.98,0.055905215892330266,-0.011985167496191431,0.03267510548211476,0.008216194044366501,0.032131079931492564,0.0005080856702779565
3.99,0.04230207177788667,0.003080246917944226,0.024757773188069963,0.008122243942428692,0.003223346869262121,-0.021586288350969107
4.0,0.06246060682015132,0.015296004234112974,0.02221288932219812,-0.012307450648875496,0.023635478066132413,-0.015035705235844786
4.01,0.030130651286344918,-0.017124687256720877,-0.6064472341375982,-0.005292284451954506,0.0010693937282038341,-0.00482645808007315
4.02,0.027234305505062856,-0.0021441514886553262,-0.8752114950101393,-0.001530204362842773,0.027343999232690947,-0.015435901224503976
4.03,0.026562271902344396,-0.002809161652129912,0.10615367463472249,-0.005322879225945762,0.01281369016693766,-0.002029679493675711
4.04,0.0504825077463365,0.00554250295662464,0.09735551104427848,-0.005645537179431841,0.0016647669204789082,-0.0178334369980381
4.05,0.04136230722849581,-0.005979171793990529,0.06745600789283485,-0.004329228499885252,0.025101082248140838,0.00991763025708584
4.06,0.04577260283178444,-0.004986429998111782,0.285546963302079,-0.0022133641131444203,0.007211514741021188,0.00043316897117836196
4.07,0.040735612742961926,0.01530852930966813,0.1308793586077092,0.001934969779593042,0.015915855157570807,-0.014531856796785274
4.08,0.03171707486365308,0.00634158272078005,0.04220813874444125,-0.012922813500770442,0.007707727325036542,0.0032067277175321816
4.09,0.022894348554003293,0.008936208013985144,0.033727625142831855,-0.009510420901844471,0.015512333966190464,0.0018729738666248621
4.1,0.0329271888901937,-0.0017410692062674832,0.0402871708589347,-0.013875657849167635,0.013684255812201984,0.006076576382410606
4.11,0.02276214916001782,0.013193814003814466,0.04185104297570958,-0.017005284371362214,0.0003808825817766641,0.017850476634017783
4.12,0.02473807742971695,-0.016467370466556722,0.026763421403705554,-0.010946753845525629,0.006624739146918135,0.019871012938186196
4.13,0.031274612582085755,-0.00665135104428786,-0.3724004678302237,0.0004611184349898644,0.007059486135784261,0.00401985912931941
4.14,0.018882025711168923,0.0008789672869019393,0.06317714230570042,0.002356648305855553,0.008591056588293528,-0.0015213914104249765
4.15,0.03561044726156761,-0.016323879274912786,0.04387033598967941,0.0041898956821399685,0.018147872335961695,0.004628683565077759
4.16,0.022241124959497417,0.009322819982626112,0.06289929597620368,-0.013083972266310612,-0.015790832800781408,-0.004618156673362476
4.17,0.009156363354981017,-0.0025410307267891823,0.04989510324430469,0.014813672216382984,0.002499059561419676,-0.005838788149289985
4.18,0.0018516504781349481,-0.00399618748032036,0.40533697279478836,0.00869646577449137,0.01553916287729469,0.01102786026490725
4.19,0.012435711252882313,-0.0098155281765402,0.04804152554024653,0.007801615670736421,0.010363098112028173,-0.006974054023432521
4.2,0.02944982764601342,-0.011470118006468476,0.038736703839294145,-0.015004543119168287,0.010693528197109897,-0.007945485919348239
4.21,0.016873559973872305,0.003541591543304792,0.03960896240746423,0.02073896854625168,-0.0028628530382489546,-0.004201256029287912
4.22,0.024958387188376376,0.007117795080307772,-0.1637055355539393,0.0056384719261853115,-0.0035353274151646956,-0.0035062505459481485
4.23,0.027020863033090203,0.01854620197473586,0.031671985913990404,0.0027226921629882163,0.0028239977773025947,-0.006705659762551983
4.24,0.011956487865053546,0.032835392757419715,0.0491759220969232,0.015297728095730212,0.010214174393567522,0.007046759264485781
4.25,0.021520440687660822,0.002364876030090669,0.038443371034959845,-0.006083810786018417,0.020377895487901004,0.002051813557281351
4.26,0.01564605175431754,-0.016291648783312022,0.04434632782417662,0.003552929251584215,0.02354133133971127,0.005416349880477874
4.27,0.021981012865375,0.008203520666678964,0.029212075325485642,0.010341071919527909,0.006839992797641475,0.0006807676328241163
4.28,0.029400349974593117,0.00783484645261796,0.0250456507931495,0.026612053326423087,0.01678194056500775,-0.019964265109484857
4.29,0.015116627686363345,0.008487497280597476,0.03139606446088634,0.017893095313086076,0.019072853838746268,-0.020070774216409865
4.3,-0.002472552602336307,0.006152209660624121,0.4458058901005862,0.01438726267314857,0.01845357594515258,0.002218446992272081
4.31,0.02343185613734751,0.0012826636874668403,0.13907413645997022,0.012763742310358758,-0.006711938812060699,-0.009735075372918421
4.32,0.01725496543140623,0.0014997872433457002,0.0016656542849611523,-0.0014279054175735072,0.0007920476157676024,0.014403889513578629
4.33,-0.0015114561475182853,0.0033582331960261983,0.012585721589032293,0.014095621567167323,0.017260318895508373,-0.005079379604805052
4.34,0.02074831162291779,-0.005472868497240931,-0.0029663771778258054,-0.004844091020216802,0.009750949797372939,0.0019620421084426097
4.35,0.010617413078251616,-0.011534457886969253,0.001021347635360383,-0.0020053405763556164,0.004105767072235667,0.007985784699720364
4.36,0.017557883366597776,0.013443353402498543,0.015621874792963035,0.014963451409664439,-0.005045056718431187,-0.0033723798849957356
4.37,0.020617834044966907,0.0020224889066989896,-0.0020674045713719447,-0.013806509055578014,0.011958240817118802,0.001801377549280941
4.38,-0.0009357496638226883,-0.004800273759829124,0.003987745819602642,0.005218431459691522,0.0018968144031202734,0.002116208461309616
4.39,0.0014389036932432862,-0.01968364856606515,-0.0020946240837107256,-0.007905496383018993,-0.00022890534447268275,0.0020920664650230813
4.4,-0.010806779209118305,0.008755248669539712,0.011084074235838275,0.017926778607327908,-0.0042514725687149355,0.002092101619288857
4.41,0.0028215417574327284,-0.01802113428046174,0.01674749873183987,-0.007201705023912451,0.003491130805416329,0.009988057126825961
4.42,0.004881361960085368,-0.01362345666915252,0.01885109198862627,-0.01633076534664949,0.00439216833050909,-0.00921050173504016
4.43,-0.013190802131297391,-0.0001152752840971492,0.009200213395794103,0.0010444419185560066,0.006026579704715899,0.004376099562727028
4.44,0.01569180187431384,0.0074668845879140855,0.02534258997462014,-0.00511966701563058,0.004029714298899584,-0.01322723917793169
4.45,-0.0033437554780068783,-0.01777380728771094,0.01327941605308467,-0.0036906913532908413,0.004637707709365037,-0.0022909501958462367
4.46,0.021688255614845303,-0.026266821877513863,0.0019475569937347573,-0.007208598913764823,0.004373539044578367,-0.008805372552989094
4.47,0.014230767949290046,-0.004030636114656926,0.005711889069911608,0.005837225472410577,0.0062981382350865926,0.004517047480727737
4.48,0.010917117539486437,-0.010656047553752906,0.01940847400629999,-0.016411465789976726,0.00680190357324153,0.0001744437802398799
4.49,-0.012314000542832616,0.014059346760821403,-0.007143655861256246,-0.004296415303557277,0.012793478276081911,0.006427929227113492
4.5,0.009944143940979784,-0.0007544489613698141,-0.014949560199570132,-0.0040091136426401355,0.010314422922261594,-0.016078079904955755
4.51,-0.0032673943418553932,-0.0032916360517485236,0.0007030981900787645,-0.0041643339438706154,-0.007152383730164171,-0.008344278081730943
4.52,-0.015770623055210636,-0.0009960179728124895,0.01432713702401478,-0.009312576543421562,-0.00358951632393537,-0.0011767270824578303
4.53,-0.013712885171425689,-0.01040269513820254,0.026189757554788633,-0.007338815994037818,-0.020779180895748345,-0.013689142563893631
4.54,0.0014537632173520667,0.009291114201657983,0.0037352004925310135,-0.013897117886486189,-0.008369746737164056,-0.0010491303350674145
4.55,0.008425798121900908,-0.0017493678453253106,0.06261072178071854,-0.01839317352221949,0.014244791109990905,0.011633965283467279
4.56,0.009462071797999958,0.006633640908269994,0.011740271723754057,-0.002583013310431919,0.007400192060119001,0.009400380478312457
4.57,0.015971989310939662,-0.0017013014596247399,0.9433107712483191,-0.015415929291098382,-0.004118942291711268,-0.021467290261184352
4.58,0.007683378905975721,-0.003308342606430298,-0.053862222392053356,0.008304957674582567,-0.011726045477564478,-0.007383054385860564
4.59,0.005947559288579881,0.005823070743143557,0.2132371862004869,-0.018143717273396632,0.011638076823890096,0.00987853296584507
4.6,0.020842275852698634,0.00027705117171178493,-0.343163682385898,0.012268876878068779,-0.004528034938227856,-0.01700152914465225
4.61,-0.009608275565594245,0.007235190589362148,0.09336963635198854,0.005625488893433958,0.009112340975783138,-0.014567306437050575
4.62,-0.014059015566698412,0.019121755094493056,-0.155853043871722,-0.001978120601841056,0.008058535463337747,-0.0018401273529391133
4.63,-0.004111390211571614,0.003200851742246177,-0.03193749820036156,-0.011079577804337746,0.008151329178543247,-0.002921369025435852
4.64,-0.00685511267537953,-0.006170946916872444,-0.018099204404260102,0.0033505579813330627,-0.0004781496567630196,0.006186772172984032
4.65,-0.008901800079957526,-0.003060611513901448,-0.0036411422965358323,-0.009238439064976902,0.003214781163607918,-0.00026817466771987195
4.66,-0.0017749374690435866,-0.00476573660009753,-0.022471551853543808,-0.0022603972682874347,-0.015277231674173716,0.009689055622366176
4.67,-0.01692240085561829,-0.003859068125627682,-0.02750333805112682,0.0050957006014341905,0.01638560189169018,-0.007649446556523269
4.68,-0.015717561852745733,-0.005428006063279754,-0.02646404825175947,-0.011976295756162447,0.013646059555787161,0.014671363636192538
4.69,0.015861421171732934,0.021524070565768577,-0.016523845015771522,-0.005918192786627258,-0.00517486710531843,0.00028026637931020384
4.7,-0.006857422329757916,0.016582518353358153,0.10832334358613062,0.009191095877505186,0.009525907745079972,0.016194765269990818
4.71,0.012511847077450164,0.003910008368223736,-0.007029745286726549,0.007958915156602384,-0.018566344934751296,-0.004935844504150151
4.72,0.020536326104949258,0.0003592018255030513,-0.3626750446164936,0.00949291299632661,-0.02039839159928937,0.019288121003757645
4.73,-0.018109415249588447,0.002918032804676341,-0.10946174465036937,0.007440566552819214,0.0034954890035988097,0.011641614402879948
4.74,-0.00035292122270865877,0.028256489056239606,0.639565720515698,0.00652839754701224,-0.003323519880949601,0.005242511957328379
4.75,0.0339244793813149,0.008508328594838507,-0.02788302890433464,0.004633635797694952,0.00793416783494944,0.018816415788174383
4.76,0.014835646902589612,-0.004255861134108772,-0.015221636787457226,0.008147417956088403,-0.005781967004483364,0.005937138122082734
4.77,-0.010148260713263467,0.03525466543307325,-0.03082021129898044,0.010822058647892851,0.02037488192802138,0.0036323649865068206
4.78,0.003193236447357013,-0.0027958092791391534,-0.01203800156851938,0.0003558228656812398,0.017188955668932047,0.017085703984007296
4.79,-0.008230356182752932,-0.006160309791891187,-0.027008901021889242,-0.002504252430421407,0.005588704541776702,0.019795218358378407
4.8,-0.0132620001357079,0.006389913810460588,-0.011569660333323788,0.008457358664054145,0.034978844903415365,-0.008016533886176468
4.81,-0.008735293185587432,-0.008000699172691998,-0.022855609308460017,-0.0030372509547651567,0.01198498690567422,0.018573015489295464
4.82,0.0005394092283773312,0.00033828386404965267,0.4936230321623843,-0.0015500631995933349,0.012894589137039544,-0.004028967254499837
4.83,-0.005691702192193636,-0.0022480928852088872,-0.06403410311384664,0.0020775240820991524,0.023628786178871496,0.0017348314982227131
4.84,-0.003997405396902999,0.01363825795534674,-0.07208906937343408,0.003263894367436029,0.013850766718273799,-0.003040352702711603
4.85,-0.008293018251087596,0.007040006296886287,-0.04255341306962489,0.01042990261760108,0.007534120829461566,0.00781259213588581
4.86,-0.013978525287273917,-0.004094699266755973,-0.021463327620974332,0.005647154403857194,0.004237025996515945,-0.011235406977457252
4.87,-0.04389098833227918,-0.002450405296643135,-0.024760736301772345,-0.008455417724285045,0.021860009021765974,0.01600279390367204
4.88,-0.007269792273287677,-0.02502265610054341,-0.05079161458011598,0.0019929304815837954,0.012582020526755519,-0.00014782885967573806
4.89,-0.0068737843348547125,0.004358680546820765,0.6583606428864475,-0.014214419180326097,0.015818886895759443,0.005327750613867848
4.9,-0.01691351143651516,-0.017192681221166944,-0.05943542835028558,0.014597706446058926,0.01613551120587628,0.0047795703229499675
4.91,-0.018361153785591965,-0.00011934895509116633,-0.07452519207043078,-0.004949966842164977,-0.006850099277666862,-0.0009518892622630559
4.92,-0.0292935737790339,-0.013790510983412434,-0.03715563104562617,-0.004233516126647562,0.006981692084942029,0.01102112196956912
4.93,-0.015423154597740293,-0.014727376487698096,-0.03575976530289024,0.013804990319914223,0.0019023522037874708,0.0014381498270356152
4.94,-0.02089385563804291,0.003885178557178337,-0.04826331940298968,0.004025104734497154,0.013203328710893433,-0.0013295587167070216
4.95,-0.005568389838164888,-0.012359831741524187,-0.052628734416179115,-0.006057412171127279,0.018965777227480857,0.004237030484304815
4.96,-0.02551053600058793,-0.0004677565502801908,-0.02943185946848627,0.012737134550423052,-0.004435715132748624,-0.001853329366443841
4.97,-0.03933353853636312,0.008873024586334549,-0.0431509335350531,0.009781931704996022,0.009522259221204551,-0.0017666509017530327
4.98,-0.013434352590827207,-0.01100645399977084,-0.03887351841243526,-0.006623891183663201,-0.007179420880875244,-0.0015833129837375917
4.99,-0.03376301468034378,-0.0020162877620154974,-0.04954408509007993,-0.010079170436206873,-3.4745120462672044e-05,-0.01020154788921503
5.0,-0.02683179553595981,0.004603358266956283,-0.03020688086656114,0.003820871260109428,0.004821433218057494,-0.013671603019378434
5.01,-0.020318502408423963,-0.01915187331546906,-0.02055153074065314,0.0005446572107978317,-0.035059478894642664,-0.019555163666077593
5.02,-0.03718987472814962,-0.006681676154056468,-0.03614786247000673,-0.01400841969813169,-0.010343128209992685,-0.012266723512061671
5.03,-0.020460514561365616,-0.005509383533417397,-0.07039194714045371,0.006183417277121618,-0.007135450211945718,0.005987868018001023
5.04,-0.0054909537804090115,-0.004591850682411533,-0.0484414906974889,-0.001749883730170482,0.009801512390032022,0.0023317977580384307
5.05,-0.016662487612126107,0.0026844073916601897,-0.04046822181944176,-0.02036309200553414,-0.006886878500364714,-0.0022076313684799417
5.06,-0.01738758458383847,0.004860856326298582,-0.02356735540006959,-0.01749242866509681,0.01579538311529621,-0.0008140359022058007
5.07,-0.013424058624594594,-0.019206583106282243,-0.025335606574344718,0.013384811789075348,-0.0005047244033728015,7.675770288883741e-05
5.08,-0.012748214130394913,-0.013008514605527675,-0.04266516050650991,0.003785351094133864,0.00557984256255494,-0.0037520186205138037
5.09,-0.025127950557514732,0.009295372830462648,-0.03511670636554231,-0.002341143088128453,-8.517466282062123e-05,0.0010707419476367532
5.1,-0.024309494522900175,-0.0034108036787494998,-0.038413156738804126,-0.006719610583214818,0.024445522962624203,-0.010368677960822545
5.11,-0.03530699518970435,0.01845401810457844,-0.020407289143770525,0.005597389544674702,0.009367763820622248,0.010240950818989977
5.12,-0.01947572106327682,0.010768743775150705,-0.030748863034150465,0.0066711636609625286,0.010858571271384433,-0.0154001948487269
5.13,-0.02393089204357166,0.006609648543525425,-0.035687178322337434,-0.0004640225841741351,-0.00043586832429181807,-0.015998100634189737
5.14,-0.02158181803464452,-0.010016412678367557,-0.029738904708834196,-0.017244674625729355,0.01109899064210899,-0.010861597446903222
5.15,-0.045010492142062056,-0.020726923823934592,-0.028268388204600522,-0.02638491713595208,-0.0018742744222232204,-0.0006252822876714717
5.16,-0.03069832505044019,-0.0010820960272381033,-0.01304822592811188,-0.02804006056406596,-0.013444791652122109,-0.0045180670229003315
5.17,-0.0325415836528198,0.008746128528541862,-0.016008644326693137,-0.014718796647833796,0.011225594104925688,-0.01023936936000637
5.18,-0.040855311596574795,0.02585248881733246,-0.0284237741025843,-0.0055398999035437945,0.0058449493694327104,0.002743501044806749
5.19,-0.028279571332788446,0.007882802994132547,-0.03657350538084755,-0.0008224965013370368,0.0032367509745905377,-0.007600428380121196
5.2,-0.03847142736874891,0.019764940678546117,-0.016757424214488288,0.0014251946536110015,-0.005988903322941136,0.013830151017668928
5.21,-0.02720565619382793,0.013907011920290544,-0.019583455196209597,0.010392621859661819,-0.003670234211874913,0.002304170644157319
5.22,-0.02956558409850365,0.005734678888553508,-0.022651868585683074,-0.0006583603663148732,-0.0040369902986496994,0.006791043562945267
5.23,-0.022682121146887384,0.023722464950244188,-0.011166026876591026,-0.021329786211355797,0.003347519313956739,0.0013584991919493678
5.24,-0.04437508282490691,0.003520066225842342,-0.030971755607751384,-0.013189515125695037,0.017818368646744052,0.004960678194723638
5.25,-0.017369414621321667,0.01093973792697217,-0.012477583491554802,0.006066170149534413,-0.002520341987377315,-0.0007197186433541335
5.26,-0.03137327305586191,0.012456349711754461,-0.017865460512001757,0.015526114423040662,0.013153136830830074,-0.003863444342764215
5.27,-0.0364142124645591,0.030044217500841935,-0.011777065790807438,0.0012270856237167511,0.0020310618571524486,-0.0016454797297582573
5.28,-0.0429156925720373,0.009507392488418987,0.32755806220771055,-0.012813024960892528,0.005135789586649146,0.011595069522553375
5.29,-0.040113822642044425,0.019416065707183093,-0.03885241779434034,-0.006719165818182679,-0.006517399760939668,-0.008900377367250849
5.3,-0.0382184260261707,0.03104517616654221,-0.03423642604558378,0.015611964537323879,0.020078534459262228,0.010109030820426723
5.31,-0.03494048778287616,0.009787313961812458,-0.008177892390153428,-0.0027837395042369316,0.0064979604506424805,0.0038238780897193528
5.32,-0.03770198950059585,0.0036445924295113548,-0.7524140498043612,-0.0027566926400725846,0.016225942340798882,0.02950631828266038
5.33,-0.0247353735870821,0.01563077928589445,0.011093979898814364,0.008237684427701158,0.0008687922967559796,0.021016719079895885
5.34,-0.02910563552758154,0.02903708813759533,0.16062418390008606,0.00900981060991783,0.008903198129282669,-0.003368646600471992
5.35,-0.0279924859504225,0.023591091211631523,-0.01556651526748327,0.009639818529685023,7.959339468132688e-05,-0.013348525231692596
5.36,-0.0267120486626035,0.008351489630142126,-0.008897994161565738,0.014523642109332685,-0.0031557860072462442,-0.0026512390041594893
5.37,-0.036071106958414395,0.02095585665674346,0.013672706872774713,-0.0036496846125093022,0.001391772558503921,-0.0037919766425154
5.38,-0.037001683097378196,0.0012288733946883863,-0.0014094610721164282,0.009905891727386302,0.020808458161263685,0.0038765911596907766
5.39,-0.028387015538432415,0.014667464284273546,-0.020632665046396624,0.007112753736724641,0.006320384104888723,0.016085116895023618
5.4,-0.03641140668726917,0.010509409218132704,-0.003614908440585652,0.010345155300785946,0.006193457901488847,-0.01704579473826346
5.41,-0.0362455178811964,0.005727623129793809,-0.006543285441989252,0.01717604401555277,-0.006129477176413651,0.0024325530453949097
5.42,-0.04155922295985903,-0.001708786880750185,0.009548060090679645,0.009632818778033483,0.014956442539069975,-0.006246341580583067
5.43,-0.04105137376049333,-0.003077697268164389,-0.00815814654000999,0.008399626416828246,-0.0036978790243303787,0.0021932678842324846
5.44,-0.03655553979036936,0.0025530144149062918,-0.02242117363791213,0.005901833168688409,0.016975136856131334,0.0071598410210483125
5.45,-0.036680502678185636,0.0067147068563592404,-0.0021017486467565863,0.002404055390562277,0.009362948796003018,-0.0027220260895495464
5.46,-0.038170256007953346,0.005198459752665469,-0.024020350358174382,-0.007621964878597913,-0.01374038866059123,0.01113120841857921
5.47,-0.026588488858478088,-0.0022846049759553773,-0.008944765807729921,-0.00452752896176389,0.005003011339453707,0.0002859278444452762
5.48,-0.05463167362990728,0.020749516115513067,-0.321488208898632,0.008132174323177754,-0.013804048274180868,0.011916327887738068
5.49,-0.0481469124339434,0.0005217019354409394,-0.014559390915594151,-0.00710682245481705,0.00361513873637314,-0.003069464000417753
5.5,-0.020314280494927672,-0.00947254520709453,0.09610126291413788,-0.005590652558693937,0.0028697447608432222,0.006087154760135741
5.51,-0.029883159411994188,0.0030098330839435656,0.009646911053860781,-0.0009629993421835935,-0.004942339309980342,0.011944597621145074
5.52,-0.029173321750952566,-0.002045097963128896,-0.005059616926369331,0.015149623101687016,-0.005697906857725809,-0.006099658346192877
5.53,-0.04075184613233557,-0.0009955858977197351,0.0050848926999798785,-0.007933448034577528,0.0044557113926165775,0.01160953891289094
5.54,-0.051778824013990275,0.007721240134407641,-0.002254429741603737,0.0036265976587369084,0.007054915881199386,0.006359854897943153
5.55,-0.04685523631176014,0.013843289443938745,-0.004030399414152772,0.003381101650793012,-0.014678406746105675,-0.011736685272083809
5.56,-0.059648255077895236,0.0062760475705602795,0.016369334465491398,-0.0020081341359536008,-0.00812108812608933,0.0042406717645810275
5.57,-0.05025177645828963,-0.01731535330187671,-0.001153511097846408,0.0011020275559663392,0.012307852876972485,-0.01861434446828476
5.58,-0.04137490431586904,0.00819335037694398,-0.01059529573164895,0.009266078611689382,-0.006105025405587675,0.0054544892650562156
5.59,-0.04311177120670688,-0.014945363783438699,-0.010111408016995305,0.004307791652413644,0.00856126909697549,-0.0016167488868646747
5.6,-0.026063639431725023,0.010079343234630944,0.009591053562924078,0.003810582004841613,0.0007207493657582873,0.009431213833057155
5.61,-0.037338176221405006,0.022981166450545754,-0.005290669671930643,-0.004040824167364924,-0.0018794327518147852,-0.003605340668376521
5.62,-0.039632050593730844,-0.01600360499346575,0.0033625193841087496,-0.0036359834470592123,-0.023591136000213023,0.001151801404846501
5.63,-0.0497100061979217,0.004710452322033558,-0.018039151181463677,-0.0012941774611015472,0.0024016719499824497,-0.005795305720851081
5.64,-0.05027186828050035,0.002141911366491333,-0.023344488604415025,-0.006131902648987808,9.537799255256163e-05,0.006501272210006849
5.65,-0.05362699540502543,0.004268759316848909,-0.02416868368836203,-0.007883342300374515,-0.01278535049981663,0.00012164451016475871
5.66,-0.03640858992110269,0.015168803243004457,0.0035008775360548788,-0.010889959662156454,-0.00783368001996917,-0.0008210140365619634
5.67,-0.01599909368569511,0.020134977213551085,-0.006847592656764453,0.016251799133405936,-0.015323898292826939,-0.010262080133476717
5.68,-0.03830321964271467,-0.006794856715858872,-0.0050148467266735025,-0.008406538101962433,-0.013998626906005562,0.004005294097518314
5.69,-0.05743942746511445,0.007084752086610586,-0.39703591633826807,3.927850115678839e-05,0.0072505323333475515,-0.002631588023910001
5.7,-0.05080589203955342,-0.001727724348244052,0.0035949854059541195,0.008694028211908986,-0.007770730351580386,-0.01659636043117473
5.71,-0.028435785339149016,-0.005558454102882331,-0.005994940984033855,-0.004613058679210142,-0.014689255654630291,-1.374680475104079e-05
5.72,-0.04994735149098724,-0.004129463032283985,0.014207339138816423,0.009701370369650304,-0.01297744293235642,-0.007678196317602233
5.73,-0.030550557529269454,0.0014896934806222224,0.01189178079675588,0.01155641529120101,-0.01319406879320657,-0.005245650518207162
5.74,-0.036802585184659266,-0.002957947867103396,0.01821973366480053,0.014466904473088769,0.0024460021957362858,0.004345398842351302
5.75,-0.027899349860198434,-0.008541258578486498,0.009538343315439474,0.011642238232572317,-0.017064764537754032,-0.019482134562405766
5.76,-0.037046395900963924,-0.005285114954656976,0.01991516058936295,-0.005110513326326022,-0.019085186365994336,-0.007707540970633145
5.77,-0.027125556318269052,-0.009705163469201139,-0.000720450798646799,0.008309451734669354,-0.01335996748146843,-0.012615163735036482
5.78,-0.035998462778024945,0.003075162596630491,0.029046292866606774,-0.0012696160545453456,-0.006724249057684552,-0.004715907569258982
5.79,-0.015810721872107303,-0.008283438091423083,0.010208165684209939,-0.004472074952596241,-0.02355970036852432,-0.0009620505189991552
5.8,-0.012568606399933171,0.011844138015219018,0.021506420016508314,-0.0026964251807166904,-0.003339210649727315,0.004182991050043871
5.81,-0.016059124466998646,-0.009317489126880109,-0.0063893551143882,0.0041209466008415956,-0.015568891205472793,-0.017512766875856102
5.82,0.0025003926524961653,-0.02111687525769436,0.015274977215333926,-0.005218638654125033,0.014470315381860919,-0.0035882863330652407
5.83,-0.0209640726811251,-0.002368978399584386,-0.00834291934158726,-0.00027464750727715414,0.00237030438625911,-0.011452172716060381
5.84,-0.031514462514500616,0.00594101697978589,0.011064980879075493,0.00780996111677988,-0.008181963426270325,0.006586734178598979
5.85,-0.00920984228065792,-0.006891012113481657,0.019590934101498925,0.00029342044881437615,-0.0004518005789613429,-0.010480927331873021
5.86,-0.015047841457914903,0.01576231471386761,-0.0018740601293536965,-0.01990760452341767,-0.026745820060443896,-0.0005987408487740566
5.87,-0.03570665619439536,-0.018964033452554797,0.004411918928352939,-0.014840986480173174,-0.009297885685454966,-0.014264607716338909
5.88,-0.0008927289269372342,-0.005671914013053335,-0.13742504383467302,-0.003934800417573014,0.007767711352608263,0.004179490389996966
5.89,0.005530957907556817,-0.004563593088623629,0.004236519120357007,-0.006437299846361646,-0.008188555259352356,-0.01139081264973859
5.9,-0.01570047763628435,-0.00013383059718379906,0.01507655862054833,0.00017394702263631451,-0.002529263975587979,-0.0011633657484940978
5.91,-0.018784377159417005,0.010883716242530926,0.001611588892297424,-0.00215838841258643,-0.024354645386208455,-0.004509272667406525
5.92,-0.024895273368776262,-0.014773214509800238,0.006984127301191988,-0.005987676513610135,-0.012024217712297364,-0.006306203167535178
5.93,-0.02322918541425562,0.014917199619666997,0.017996059748278385,-0.025549165894929615,0.007723825196873617,0.0057114469486120815
5.94,-0.031905522099750894,0.007052372198965349,0.04914433216167032,0.007597389070544625,0.0006148174161899182,-0.005357483674629383
5.95,-0.010640657984777762,-0.00048558836951455775,0.21837458396242418,-0.013602493811403299,-0.002300021019857854,-0.004549827312489713
5.96,0.020334297634481677,0.005618389215793634,0.007303761486951164,0.015319456404869418,-0.037715729875004364,0.0023919161913466664
5.97,-0.019309143925424075,-0.0017435788903080798,0.0019297761404754993,-0.0027734307587359026,-0.007009619843473222,-0.005291245393316291
5.98,-0.0026519502220123756,0.006456686902218469,0.27693186694450644,0.009740257596236652,-0.0034484940759546574,-0.003930500142054514
5.99,-0.015517504489743804,0.013347562187340945,-0.013257703724940331,-0.011795803383056408,6.543866592726919e-05,-0.01265903623178777
6.0,-0.0011423639231861902,-0.003851471572251475,-0.009947154621009214,-0.004863915491267027,0.0014259238288227751,0.0007427233298018169
6.01,0.018387105626601365,0.0007039505917433768,0.005400403608793944,0.0074785306515433156,-0.0032695233933452304,-0.02732018273667907
6.02,-0.0026893371616398144,0.00725685775917952,0.0028760354526475695,0.0030516036955058187,-0.011514726728414599,-0.016059037358468572
6.03,-0.00011649405144426549,-0.0017006757134287445,-0.019919918944174872,-0.013188097340707208,0.019516504444963972,-0.01150059008324611
6.04,0.0054999006760329955,-0.0016705470920055192,-0.010199773762468204,0.00936406513935442,0.002968444548886575,-0.02082982007580593
6.05,-0.013472380154401671,0.014182563202802277,-0.41892978673424386,-0.005433257340273884,0.015013598494582722,0.003749987577925949
6.06,-0.014824230624440968,0.011742330208507826,0.0031340981104755992,-0.008027290222832644,-0.008702922857699287,-0.019854262052722386
6.07,-0.007107444961007707,0.010504600890909998,0.1308374188006373,0.010164379124711818,-0.004465439160934232,-0.01700459175932336
6.08,-0.007005680200216809,0.000544716282098109,0.16721787400445826,-0.009195894335171595,0.0011152807414335486,0.004282073131206986
6.09,-0.02586492058114256,0.001428811170514035,0.007823782210761316,0.0018037016971043673,0.006027517584673915,0.019872269410269105
6.1,0.00978097726737949,0.015751474943573984,-0.0034534562614102165,0.002049268351408777,-0.0008168953900913505,0.00045402002407149314
6.11,-0.012738995223172013,-0.0007749369021042415,-0.0032945687314504513,-0.012406180897487639,0.02052534344633247,0.007118212953834918
6.12,-0.0110747378745549,0.0014434664224684882,0.004411104950490922,0.007756139556505604,0.009023952047842496,0.0138424587163537
6.13,0.0038355989178011727,-0.0030897593406362346,0.33851598456678694,-0.006156202153836078,0.0018169276500649746,0.0012773748415042861
6.14,-0.005866094532410712,0.0002742064832601679,-0.010998664753357453,0.018387624346224853,-0.007823424231736452,0.0004550487036150694
6.15,-0.0033392762784526207,0.010799161656936597,-0.014451190889260068,-0.013151091232385751,0.006546772874577144,-0.0027836970284502416
6.16,-0.02279161221536769,-0.005264168631017302,-0.24592322812032047,0.009738183602047498,-0.0005443629666609809,0.0033745754361997568
6.17,-0.011109652115755158,0.009862721310982116,-0.10686047403209822,-0.01136480041222432,0.0013164236339495692,0.012752937971596991
6.18,-0.02153802914017272,-0.005867552527771259,0.008771675441062967,0.0034951209739519425,0.017919773342114562,0.007924409650492055
6.19,-0.0012136324589068683,0.006876762770480386,0.009371893127984147,-0.010166496091410335,-0.014934653288457663,0.006990770222822299
6.2,-0.027301505310569907,0.017642694887976297,0.005267537524110202,0.0096276228180593,0.0015318728833267083,0.012938501949383025
6.21,0.004509548068803659,0.010403738953332927,0.02020324182215824,-0.018257425006553307,-0.0022768229471138374,0.015060772380960211
6.22,-0.009511880042609593,0.008155502298209267,0.022149840611028485,-0.014674673697473623,-0.015896545428568352,0.020864735904607815
6.23,-0.01387162785077025,0.010771028388933377,0.000980406729081013,-0.014434167673832037,-0.00600622990359718,0.01515411742052174
6.24,-0.020394584055283944,-0.004095652014058955,-0.9986112496813169,-0.016852105416856583,0.006809049360608136,0.022958716273996524
6.25,0.008961640268735388,0.015978161936054773,0.05255263924974558,0.015866970616274054,0.0028623308404760604,0.007891173878152122
6.26,-0.018761046677714978,0.021983896927247275,0.162479331495708,-0.006764815350273386,-0.018211536451369803,0.023218938495344826
6.27,-0.016797229338774648,-0.0011336334789223048,0.027011018781476565,-0.003985497612553613,-0.01829615993078472,0.008924959806670492
6.28,-0.004287766301866155,0.00010310557325519769,-0.3826001484716322,-0.0215446354356878,0.01183059404436163,0.00514002407766311
6.29,-0.009895723218278122,-0.004058260919392679,0.048583596375281334,-0.009350399767218614,-0.009691837125909831,0.0051465608136299565
6.3,-0.011482315381044071,0.02234099365572543,-0.07825684400394392,-0.000560046093208324,-0.004792925754803017,0.020848950259445265
6.31,-0.013629888374398038,0.01470325540398634,0.044453842096012726,0.005259763770411703,-0.023059898668368488,0.0073185703954688364
6.32,-0.002707022329444312,0.02755076305280678,0.067465939793876,0.006458859451086575,-0.0035401197569088784,0.011512866416307563
6.33,0.011446885435509164,0.0018920381370615517,0.03392573938646647,0.007129094468620911,-0.0035105798483092334,-0.0032258352864566507
6.34,0.0002713306884632753,0.02469631356340333,0.06159778254985624,-0.005894882088703612,0.008183206690925995,0.007826110519062644
6.35,-0.003725667319471974,0.00685582140398807,0.03139832109094842,-0.0033395523202928495,-0.0032119411078251016,0.010247176438240309
6.36,0.00537105746939137,0.011966868965457414,0.02887876387993592,0.029351245267201138,-0.0059519128337583715,0.00828999416835553
6.37,-0.0014988345116896196,0.011183565574980294,0.034343360645019846,0.01810111230676012,-0.002856683929523145,0.004193700735583777
6.38,-0.015102630783690792,0.018334331669834118,0.04173274550605245,0.0005183750135016717,0.017802750393839988,-0.006079786741975592
6.39,-0.009276353850401799,0.00760032679828696,0.016646711863329444,0.014107932689697386,-0.00858126872579373,0.008326270654046675
6.4,0.0013789361078529348,0.01477161146955103,-0.10861862989103797,0.0077400489101135065,0.013140952419684573,0.004716105778814279
6.41,0.01959240571519361,0.00521531365061291,0.030451100903116417,0.004932725110778029,0.004238687949746913,0.003787165671655962
6.42,-0.014924427989054504,-0.006502596789583669,0.04000297878546677,0.01915243759786222,0.00019877186246275338,0.0034807233571302653
6.43,4.126760565822604e-05,-0.01004057348703926,0.0521474823415312,0.00030548314545314655,0.022808911554169302,0.004883841910691982
6.44,-0.0016808626241880927,0.018140792424888155,0.014142863354954974,0.016787108275981396,0.0033229831515448395,0.00455617637531202
6.45,-0.0046200437686939825,-0.0008199896388457421,0.016453305168849294,0.0002430699480891578,0.013931887161299436,0.01766844370421125
6.46,0.004235661612415117,0.011784887651212094,0.050599502268491615,0.003593340249264372,0.016952401389927724,0.007002366763860065
6.47,-0.017802046710959883,-0.0012910035515614044,0.4953762150204392,0.012084510005769915,-0.0041573968697163725,-0.006964585670368267
6.48,-0.012664943168517085,0.0032226845473318846,0.004555851013799112,0.016873855843857078,0.009986445219029739,0.0019593526159382415
6.49,-0.007732951372414713,-0.001412335072768528,0.017556931667487764,-0.010497742240135848,-0.00040420782583317025,0.009636687253370049
6.5,0.0015438772729260246,0.008461417311771711,0.004396675400892222,0.018457264541132362,0.01679913530190498,-0.001206671704840772
6.51,-0.027312728425459783,0.012618269865604916,-0.03768205796645439,0.013005706459550688,0.010370495387285352,0.006426531423993659
6.52,-0.0244264636845334,0.0015149544008736453,0.232045107707458,-0.00618986988603875,-0.01915767390844441,0.011793929499247027
6.53,-0.009711511661704475,-0.0016425979666112225,0.014332492704541715,0.003445083026030303,-0.0008913968974689152,0.021088291804702626
6.54,-0.025265473101761898,-0.003776291489100257,-0.47109485467259005,-0.0008714079513096355,-0.0007919906903871652,-0.011585401753328678
6.55,-0.00951872282992056,-0.018514955692470966,0.03208387522711867,0.005939054977793326,0.008875259835956696,-0.00401570820926749
6.56,-0.005471261744449906,-0.02663544122831107,0.009427736973016385,0.007146523419413544,-0.009150107148177189,0.004001393610223009
6.57,-0.016895622706574707,-0.0113990977986753,0.01678250415485552,0.007154355930035085,-0.002930891487854677,-1.6558787010164788e-05
6.58,0.00334176243929378,0.008504088102738625,0.0384603737199786,-0.008212578788083347,0.0025770450179245217,-0.003239418876987
6.59,-0.0187844611903364,-0.005320081051351301,0.031815531951361095,-0.0007734509825983388,-0.00611553252092935,-0.0009171905182566542
6.6,-0.025293041345798954,-0.0018499367225804629,0.013176265361360776,0.0011517140682318786,0.0020178391425304514,0.011923764379800363
6.61,-0.027989570903733878,0.0017183346703372251,0.017357886225905728,0.00900530098438539,0.0016504503627154613,-0.014898652968522908
6.62,-0.014775789256766982,-0.014713587964764385,0.0172710623212624,-0.011748360422482429,-0.0007671478554349383,-0.007233366193279486
6.63,-0.024408630918192682,0.011775012005010028,0.007628380689471977,-0.015222401684866145,0.00020423829900856403,0.004102213411978366
6.64,-0.01027414167579793,0.008667661349877665,0.027526456532432818,0.009887870927908396,0.018086315208742373,-0.009369968002077022
6.65,-0.02532857690824889,0.008904511987785071,0.02362864075256638,-0.030619377846048342,0.006925976413319683,0.0036698559520387617
6.66,-0.00022236244094926347,-0.017074366481996256,0.21081536535389067,-0.017027791870554594,0.012150346814601745,-0.006207337468385559
6.67,0.0019248742508947876,-0.008378928654961027,0.08886729734708124,0.00449540054790286,0.004740137588588833,-0.0025864193639552596
6.68,0.0007286944956397708,-0.002968561499155274,-0.06738561029293094,-0.03525291802084509,0.006052888469446984,0.000937184708524002
6.69,-0.021793104084310837,0.01287707147856799,0.009622197602717918,-0.014580468687501078,0.020338805027404233,0.0073775233464070155
6.7,0.0025157715549997475,0.01120851299429784,0.016992941235426155,-0.010541000162531882,0.001268375397972539,0.008446092477536232
6.71,-0.017918015789420295,0.0035383882386355228,0.006721718729000163,-0.005094123633266068,0.014441284416908874,-0.0005874245159768634
6.72,-0.0026240023061164866,-0.004417161429158345,0.015921151480434947,-0.011014603736887046,0.003316967442452211,-0.0033972106141350635
6.73,-0.02521185208299166,0.015117076456518804,-0.008903708445206517,-0.009123411487774158,0.011733815908220918,0.014971190297325777
6.74,-0.005130387119296625,0.013529060451270293,0.019873156741470062,-0.007153069609649731,0.00956194163450633,0.0008516967011219212
6.75,-0.012754872463325373,0.0069606240143820445,0.0051811956770650355,0.006837339100311231,0.001963007598896475,0.01814975781683074
6.76,-0.03556858241052015,0.01490449481112141,0.0070562709945838215,-0.013128925758155304,-0.01398523369118362,0.011930732049501642
6.77,-0.014097977014662547,0.007066979532772801,-0.0002879799776740119,-0.0061586519349914265,0.00911269018779019,-0.014987844732276271
6.78,-0.02685959415261841,0.002925283991558548,-0.20272483975798597,0.01575409699364687,0.0005697896843746332,0.0004295668364464769
6.79,-0.012997571203511764,0.00931313309705605,0.0032436202435092987,0.004918783377864764,0.008072609357352297,0.0037543431940520915
6.8,-0.0393465054890147,0.016953280430234807,0.005403295228686281,-0.017775621344060542,0.014756135446534948,0.009330966558676802
6.81,-0.023956524296645364,0.013943296370649269,0.0035927620704529,0.009300941974418634,0.003119753368430025,-0.000928144083659768
6.82,-0.026182261724050256,0.021676953637378867,0.6360298395227191,-0.000793331663313966,-0.012031240372216484,0.004807126332375945
6.83,-0.03201969959880442,0.014784698911713582,-0.027694761691130134,0.00666886044673886,0.005896005336046756,-0.001669995495489707
6.84,-0.015390281742884737,-0.005436244539341956,-0.02702627891374335,0.013099428500669542,0.0012105819950816,0.004795549899902812
6.85,-0.03822582335479231,0.00368889837870931,-0.021266116868122853,0.008951715760586988,-0.0006404915458234923,-0.02470344124544983
6.86,-0.029534509532350095,0.018276738620866574,-0.019415963692955354,0.01575831385592205,0.007195613246124586,-0.022433450634760807
6.87,-0.01109218682534176,-0.00626326805166757,-0.004913081108640442,0.009622693970989705,-0.013247387766505985,-0.010081990559505798
6.88,-0.03341172994412669,-0.0035340548781257596,0.4884201611251946,0.001989158125608288,0.003013529206960494,0.007840075605493978
6.89,-0.02987766082149921,0.00243963267422613,-0.031441877449463744,0.005433206960947337,-0.011865283792256855,-0.007929594768878449
6.9,-0.052411713789801195,-0.002929650294830476,-0.019034542614709625,0.013493388729382829,0.007713146559807742,-0.0059256020146259926
6.91,-0.035229616571702434,0.015036311465752612,-0.026895773635791806,0.008529328928873339,-0.019770899070716566,-0.011577380381108095
6.92,-0.013513495349669287,-0.005355436994990262,-0.04101293677154667,0.026119178063885043,-0.01630131989086754,-0.004318441241667916
6.93,-0.0273844078160965,-0.0032615874031915355,-0.027315743466344647,-0.005469070709402909,0.007681256423160046,-0.005034808391060505
6.94,-0.026898942628712605,-0.00024014672604906148,-0.01955342435924038,0.014157134358964554,-0.022682973255814837,0.007218479494330909
6.95,-0.016380670600883555,0.0043704807998998394,-0.022078395676867646,-0.001358740581657073,-0.02074537884569606,0.010265446855452153
6.96,-0.026832989481328125,-0.003090824722789296,0.2078001462690305,-0.006617353158303894,0.011165311899027225,0.008977989794754226
6.97,-0.0008613122965149926,0.017252061372946353,-0.022717883443050646,0.012776857294203666,-0.008559961261729601,-0.017480045923472014
6.98,-0.014093934367284318,-0.014484156659035477,0.3717096014239817,0.004959808064665587,-0.003962044192582509,-0.00811426961483952
6.99,-0.014111468117118327,-0.0019246478629407792,-0.05167553759640743,-0.003710642444294355,-0.020519937267018826,0.004053036854635138
7.0,-0.005099773263507435,0.008540562785424631,-0.04104482782304802,0.0001049146889583498,-0.007505584980910898,-0.001861167594246462
7.01,-0.023628924438914463,0.009799822110382555,-0.04602053286661899,0.0033114754062310466,0.006381334980451774,0.0067985037322686225
7.02,-0.025493640632992802,-0.0052242258227232835,-0.03434153363845423,0.0136379752080979,-0.013721208948258005,-0.009424874487209165
7.03,0.011210767339002475,0.0064929096687589075,-0.042070768447390564,-0.013542999270134786,0.0012590406859258139,-0.009131318238054869
7.04,-0.003561615588212762,-0.013219666962227363,-0.04374379955026043,-0.013423615718743773,-0.005269217370821675,-0.00798692026152446
7.05,-0.023676518262128687,0.0023172270651930825,-0.0061128112111033354,0.015309694172602766,0.007466775020649468,0.010055296876387114
7.06,-0.010408859272499401,-0.019184989648051553,-0.027333185642289252,-0.006228551726336287,-0.00978949609862114,-0.0002523724047377221
7.07,-0.021934627855842496,0.016900076808041724,-0.9744226568044462,0.007661060252196285,-0.00028773931523886666,0.020293869242585836
7.08,-0.027248085319378237,-0.005385393480721687,0.04115305074299207,-0.0029809450161089697,-0.002797767135087716,0.006941740847556348
7.09,-0.0064540380459047215,-0.006087332990309056,0.005373022488177906,0.011889098851237696,-0.00634833598969405,0.028334871530494438
7.1,-0.024485661780081998,-0.016676011851787017,0.01568994921271988,0.0008157935901028123,0.008601371650659384,0.010567660488905013
7.11,-0.008458595077863765,0.007598151479484085,0.1431710751538489,0.012997143331442543,-0.0015757637497628846,0.020618640280541813
7.12,-0.026094250870864262,-0.017855871617073926,-0.017326710642114315,0.006885968469450988,0.00865628866405637,-0.00595405798292521
7.13,-0.02778556829481084,-0.010075381546291893,-0.004032603566917148,0.00950083714207399,0.00066639418788464,0.01599193505084723
7.14,-0.00685568346292601,-0.02845689349384475,0.009197639192510012,-0.00025876382930695944,0.01441949763530822,0.01106903077511131
7.15,-0.02636381623786021,-0.012698693187271666,-0.00358049578851245,0.007384503207354216,-0.011311912723249459,0.007251473117901462
7.16,-0.015011241409232618,-0.011133558947939338,-0.013281335811799043,0.000992506505540476,-0.004186215945533854,-0.0008637884915470243
7.17,-0.007540256698360276,-0.01569486644099194,-0.0011883731066300433,0.005794118900931921,-0.013161581821794704,0.0257485102691747
7.18,-0.025835349922976456,-0.017257672340183203,-0.00314362995281908,-0.00707114722949636,-0.011108870351881088,0.014807749159908954
7.19,-0.005622638035310679,0.005245742807890703,-0.009535219485417239,-0.004570286669072699,0.01165767488908489,0.007776920279716942
7.2,-0.02778698512403391,-0.026314692413315414,-0.007653166840449368,0.001910605123880173,-0.003439537099320055,0.025754370245251786
7.21,-0.036417050877793566,-0.013989442971804784,0.00729589118895458,-0.008986590412034704,-0.007813873713098583,-0.006126111504514108
7.22,-0.01723406196642519,-0.0008105146413285693,0.000960130132080122,-0.0014525253308788127,-7.6592864403883e-05,0.029540051386748617
7.23,-0.015520139378333252,-0.008516636695595776,-0.0037507943852424985,0.00254438188108469,0.012941527523284181,0.0031220840658030217
7.24,0.0007773608693159538,-0.010380112835267269,0.014447906388981795,-0.0011514339671566149,-0.006486119628372817,0.012648560935426868
7.25,-0.0157511879721002,-0.013518078643041727,-0.0017101655087569975,0.038214735299236295,-0.003027868708639538,0.005202778653000145
7.26,-0.03498525792127312,-0.010640198773410636,-0.008022031176861073,0.02875461200970205,-0.023195914804020303,-0.001448167106157818
7.27,0.013690560072329931,0.01558723844474287,-0.0029980678148706333,0.006116901925767043,0.004978242692008555,0.0070848233043313315
7.28,-0.020308861519420674,-0.01404933625627575,-0.5044686862979961,0.009585000376886582,-0.01275369562316672,0.004577157614739243
7.29,-0.008789550693944792,-0.021040598379081184,0.020911938804243108,-0.003522997357705472,-0.016329061012911837,-0.0021602937181780194
7.3,0.002297766309947647,-0.026393867756332512,0.010104140120943432,0.010744638021337247,0.008993356190066854,-0.00403957609096826
7.31,-0.003988441742226798,-0.0089910186232844,0.010750415699864135,0.013688364500828538,-0.015064662408754242,0.00038773264087460773
7.32,-0.008754079815004798,-0.005329567476133258,0.0048910712825813545,0.009374496590201703,-0.0024377260399667125,-0.010067631043257341
7.33,-0.009849662175280788,-0.007463824506925667,0.011771962450033188,0.005126119068154612,-0.010496172658594191,-0.0010136929037482686
7.34,-0.011888030641248742,-0.0201324764848433,0.01211558519590223,-0.0042129359320491585,-0.0014215448983038058,0.00884172924333555
7.35,-0.003473482756944829,0.0018335704981182477,0.011762291057015246,0.010500187059483877,-0.009916099730010928,-0.010045431793392921
7.36,-0.015206377501255475,-0.011333169603743297,0.007634262089947382,0.001694750128967044,-0.020172934997984483,-0.006993317948579216
7.37,0.0007510417447709984,-0.03365058178139081,0.005335694946928727,-0.005016173636145049,-0.01977616944441966,-0.014037411502435752
7.38,-0.021936325629623596,-0.00041564651041135076,0.021556102480839213,-0.003021800507876448,-0.008560400931629238,-0.012450034189162034
7.39,0.000615969712121456,-0.018423513437233793,0.0583162010975468,0.008964455094687948,0.0030017079952611783,-0.009152501001915298
7.4,-0.006754363427742204,-0.019120444147745906,0.007014854704694933,-0.0035891668810927617,0.00592836229308207,-0.021327058740252487
7.41,0.004130516440079267,-0.007514135518053513,0.002400561780340549,0.007944808018065127,-0.022284803199892476,-0.002227275085543102
7.42,0.0007009622214077438,-0.007165885728245298,-0.358829430387917,0.018762537719415183,-0.015875721888875524,-0.006248787690216516
7.43,0.0069666026379330385,-0.02237167471690137,0.01991931519301896,0.002325302978538413,0.005557868407597711,0.015290409269383432
7.44,0.003166459735420362,-0.006112195240896947,0.03373972499888523,-0.011052483412376583,-0.012405591544353488,-0.023641738516134568
7.45,0.009558276857668052,-0.013780231119577241,0.02959314970452226,0.008037068246531586,0.009261319086656472,-0.016229748149173065
7.46,0.003997812960432327,-0.018828964246143384,0.8164383564930153,-0.01894764446035299,0.002949059963301002,0.0061359612489902075
7.47,-0.006242431920256976,-0.008474260728001537,0.2910267205447195,0.004824764713576214,-0.01480792524641946,-0.013819853712062513
7.48,-0.004991763559706433,-0.019604181845688896,0.3217228412942705,-0.011499272339956849,0.0013743137938074807,-0.019112975381715348
7.49,-0.0017664591932730891,-0.033237186872602326,-0.04297946401403484,-0.005527295622111603,0.0062823799559233885,-0.0074757909074175365
7.5,-0.01348469964216625,-0.020877801580362246,-0.0541958954290024,-0.007685505685508227,0.0037579525675404757,-0.013704373010932067
7.51,0.017717002088182672,-0.01567843401683826,-0.03822115970056724,0.010129036787733742,0.0015283958012013536,0.005137071349333501
7.52,0.0036375727515801054,-0.001054934347279858,-0.029761492814015834,0.007389154458488841,0.00248847458679681,-0.022392015067578836
7.53,-0.006384626754119991,-0.004802881660223711,-0.03650112880175397,-0.012304382657689837,-0.017846874227705516,-0.011178413902570985
7.54,-0.007512377779634824,-0.02987325961601562,-0.029601615444276908,-0.006613960830442854,0.007559969975620721,-0.02719494753796091
7.55,-0.005443826439833516,-0.021818162108910143,0.02934991263341477,-0.010578882221834127,0.0023836937068526004,0.019954161888866874
7.56,0.02225666982073648,-0.020224599698320293,-0.02428990649672162,0.009522621953594637,0.01623515962346128,-0.0008375475522888927
7.57,-0.011975770747855535,0.00746054956892887,0.08280711634482239,-0.004740767541910549,0.009395867636910867,-0.0018869543887127644
7.58,0.004275882588748665,-0.011872671982203223,-0.07155151608646275,-0.008080551320186653,0.002383059367237241,-0.026094288706432163
7.59,0.022076794996381363,-0.013418905302599583,-0.023647837842861796,0.006225371473337351,0.0014040759515703857,-0.011853024433443465
7.6,-0.00800984925304591,-0.014186558169050286,-0.04544941300414956,-0.018957328378074637,-0.008343462133952737,-0.00528929443931836
7.61,-0.0025046125592440792,-0.019965755104646432,-0.025442902624620435,0.004629667026756154,-0.009101778392486007,-0.011681670529918989
7.62,-0.004988387941708277,0.005579273459993348,-0.005805215903769759,-0.011744382615953907,0.0024576510541225527,-0.005183907422396463
7.63,0.0033320160075963785,-0.00293786005749299,-0.03221910932877187,-0.005675760973018675,0.013898809178315784,0.0002698322311065369
7.64,0.009575154467331554,-0.017134294909273966,-0.015080376541605312,-0.010956477670389726,8.902853235501771e-05,0.003239971745777128
7.65,-0.007839955285066974,-0.02623423477649502,-0.030934616425217533,-0.0057060929072671835,-0.0034179930277306175,-0.008383412110639811
7.66,0.004241854132702366,-0.03102074032893705,-0.021346352039585265,-0.010592845550303313,0.003824743940680336,0.01605027306597994
7.67,0.0005303631117335117,-0.023509718092453107,-0.021242079432870462,0.005603814365824887,0.009342937097835033,-0.010892461344323805
7.68,-0.005694172216672497,-0.005692474360446887,-0.0034556069213221748,-0.0025659600667141892,0.01485971245528301,-0.01097093178029631
7.69,-0.007935832678439156,-0.0005305051749747627,-0.021100517966194,-0.003839420079748424,-0.00329954077172024,-0.0012429379197681002
7.7,0.0018496026075113742,-0.02062323724413071,-0.029893455812203297,-0.023924865266742815,0.010427055990750366,-0.02395099280514984
7.71,-0.01291893370145901,-0.003713720209400222,-0.022044577798989995,-0.016150052314387243,-0.012941110035981727,-0.017940993821520992
7.72,-0.006736707190039241,0.002077582220762063,-1.2088588614249451,0.012126002998806373,0.0009207327786450712,-0.0021747824703172306
7.73,0.014524857178434467,-0.02473924639933219,0.47720621524339535,0.001378417259438572,0.01535104993731597,-0.0012866646483679885
7.74,-0.014026097545564222,-0.01473875832185558,0.016477899594386804,0.006787713707625955,-0.01151869829053234,0.003132333323112489
7.75,-7.446815075260252e-06,-0.0020364953155494123,0.007502667957667448,-0.010638266274817527,0.008749908984423823,-0.007896331955989447
7.76,0.02580437773106348,-0.008494227804643406,0.0012560381693451283,-0.022072362004157464,-0.013902836862454653,-0.0024711879458809392
7.77,0.00783419078575019,-0.003103285020895054,0.02084655769605168,-0.01727143836248085,-0.00032646256513264047,0.002502107923755918
7.78,0.007964705470545896,-0.022416163254380155,0.00796820411620698,-0.008055753813061142,-0.00908691586283907,-0.011783718724896797
7.79,-0.0030897754208422537,0.011328801163589537,0.00725920527078773,-0.004562277580760926,-0.002039370447931085,0.004668829197792981
7.8,-0.0011925123920225615,-0.013731985926176618,-0.015573028891891341,-0.010411899240495431,0.010903167388109253,0.02051185207061882
7.81,-0.00372768887291593,-0.009835417171434217,-0.009289177504092985,-0.022701372756854354,0.0055817563229030275,0.009435356527302357
7.82,0.019399897039952752,-0.0029671642088902007,0.4969938479758385,-0.007278526238930914,-0.007913183055268516,0.0006607467213562993
7.83,0.007934318188293394,0.012946275794704958,0.005124980832631076,-0.00788837490765251,-0.010923742149052644,0.0066599763247773
7.84,0.011764002038421442,0.009184132552747547,-0.0234393877742575,-0.00713377926428652,-0.023896440417173655,0.0009320714051778969
7.85,-0.004170263732013242,0.005105406770178478,-0.029002583752888805,-0.005054292818528951,0.008412555458961487,0.019897010378399516
7.86,0.0014010905491616036,0.017446893564193905,-0.01688442145024084,0.00347672300137158,-0.01191091384507229,-0.006454931729478485
7.87,-0.008239841216094149,-0.00041399416460632466,0.08382205350052807,0.007591843077421626,-0.00613341481703915,0.0057289597786642854
7.88,-0.02219496526261331,0.013072332424803174,-0.015266019807015405,0.007089639858058153,-0.009081208805319357,0.00794788205015348
7.89,-0.0008920254680469006,0.014201903330998515,-0.018754617768022508,0.01311890452744981,-0.0037994297463602037,-0.001528995456170694
7.9,0.0007908659680722176,0.003944259896656894,-0.006364166302419469,-0.003338092830365587,0.004860873280689398,0.0020193004347300817
7.91,-0.010756252668807944,0.005963703050900571,-0.01626959284731238,0.00668859017951813,-0.010058954424788743,0.016787656568909983
7.92,-0.016280621450676165,0.0002604528132591553,-0.0008486242996837284,-0.01734079266489952,0.009347804716793494,-0.001126712722687976
7.93,-0.015573878473661647,-0.002976798681504549,-0.018193022576588436,0.019940978941612363,-0.00041144833605768214,0.006748610596089058
7.94,-0.004491516170086019,-0.001807196014138828,-0.1315533856026222,-0.002899259525014221,0.0006232235563429355,0.014821399874497465
7.95,0.005168818624983281,-0.0076536074645459536,0.0018647012516280785,-0.005776512497763126,0.0027618382911166715,0.0004088239177452098
7.96,-0.001710766966492745,0.008630229585186699,-0.019917892341091592,0.015994504230165605,-0.015344647279481101,0.019472926865237675
7.97,0.0028042703128135418,-0.00504269422716174,-0.005028629588523361,-0.009873049974303537,-0.009115584805010013,-0.007916007910279231
7.98,-0.021578384556509404,-0.015310559824587885,0.9183867393554741,0.015857748069916234,-0.0030795073275910034,-0.017976012488415266
7.99,0.01672593877583277,0.006643619164675544,0.11943278667475056,-0.0020585789484890006,0.01938901768102742,0.001302049513373223
8.0,-0.009677158133264615,0.006327491566852124,-0.2142044902668764,0.008563483226054373,-0.004342767427072824,0.002009137461060125
8.01,0.003480831913228522,-0.015634603491003464,-0.054989735237187296,-0.0036914408515084235,-0.004121022055878195,-0.0008281597551603571
8.02,-0.015435341011278782,-0.010101026159935052,-0.03629846835819385,0.015439574857320882,0.0017805934095692548,-0.017186850421120708
8.03,0.0020950953159920714,0.00911538399672936,-0.020996017844347306,0.004671719693428093,0.006413729761698846,0.004744842437484459
8.04,-0.004806014516612764,0.003492481614246902,-0.0056670273167182305,0.012520698806774606,-0.032825891660268045,-0.004113611633240447
8.05,0.007242194548509603,-0.012658148054756117,-0.02358243765439208,0.00276733148200947,-0.012869987473159376,-0.0033098271462138075
8.06,0.00872283811105893,0.019626190149436073,-0.02215273700244924,0.012263270882395597,-0.006784780363965228,-0.015247603507152237
8.07,0.020717240969225698,-0.00017253281802722537,-0.021966033705163014,-0.0010371671163803657,-0.018376988871257313,-0.004540649158663141
8.08,0.0005535695051959912,-0.007750301121597198,-0.022730091493652627,-0.014802854754110561,0.0006113216534386302,0.01294472051982087
8.09,0.01804066051887099,-0.0037931266296368092,-0.017283449979063843,0.0072826919261741235,0.007036260450800821,0.0004656903779259366
8.1,0.008471405958891284,-0.02403159053176562,0.1986689821567924,0.0005847979082352323,-0.009318977267775601,0.015284238040880234
8.11,0.02964943116835777,-0.012043319714501784,-0.046271153020993654,-0.00854298695363143,-0.011678303360963632,-0.0059953068959182135
8.12,-0.009532113584941243,-0.01986862727933312,-0.027322932772353856,0.006824509150672191,0.003932700554487816,0.006461112546318521
8.13,0.009160371127986174,0.0085412585211389,-0.02366523947905763,-0.003029413169719894,-0.022817646538559354,0.0033875361606202107
8.14,0.00128015108733677,-0.00024193240419229274,-0.029346683723370903,-0.00638759114217074,-0.026384604055517145,0.008948068691918056
8.15,0.021554705410868,-0.0055595278390387845,-0.03104152821512943,-0.0011656000427981074,0.003986453195062469,0.025085507456713313
8.16,0.01383023314495956,0.000307475767152403,-0.029285674127607186,0.0027984250773819786,-0.00999584509806826,0.0030684837865103433
8.17,0.018438588622524506,0.006899695279361396,-0.002538981365944713,-0.005901149974597291,0.0063037838339249025,-0.00046338143612690685
8.18,0.021431175025840455,-0.01024865024938047,-0.039337504470994225,-0.01431308359599078,-0.018721169440603577,0.0075189072981657334
8.19,0.008670376917994342,-0.0014264175030218218,-0.034615496984781016,0.0032820782459721223,-0.00040304181589483567,0.0009603067291223985
8.2,0.017876737755772094,0.009053096602187893,-0.17315395390353264,-0.0002319289305554458,0.014478540593116419,-0.005608365504989943
8.21,0.007970464006786773,-0.005387271690473804,-0.013570450645053994,0.009156561292434438,-0.018253019468242794,0.006348550334188281
8.22,0.029064907162179236,-0.011519755066518585,-0.02493083051337116,-0.01642550375775697,0.005412956314047429,0.008490975325668245
8.23,0.008336890404726906,-0.008229546926091104,-0.022059243432695295,-0.0019742449675294827,-0.0009755149635431129,0.00313046040184269
8.24,0.040794120693541325,-0.017221300943615438,-0.030207652728417737,-0.00664042173704217,0.008511527485145921,-0.005311063384958719
8.25,0.010067677470819263,0.008008815044341727,-0.023657205424565328,-0.007659182798932131,0.01168881573158833,0.005281435570266212
8.26,0.02194629645963516,-0.0014462233112318154,-0.03655995264673654,0.002191875471141047,0.006603981376287664,0.003966009238505091
8.27,0.010097524980069775,-0.010254323883344095,-0.01260576435137016,-0.0006931164573031425,0.007809494163284488,0.0053658454996305515
8.28,0.017269189029080163,-0.0015264146620763736,-0.0059173098036611055,-0.00587550587448062,0.0017128181313906536,-0.008230414124059879
8.29,0.015771055414986496,-0.002087584407453504,0.0006014865276414705,0.00025838674842366136,0.002195618583479884,0.003219787900891082
8.3,0.014404813562339878,-0.015008861964607814,-0.006551233105579353,-0.013582467253633032,-0.0013299493788464806,0.021721500348112273
8.31,0.02139753509800319,-0.00482373770319909,-0.014195655505619251,0.0009683872208516395,0.013353352674476642,-0.01287366407742141
8.32,0.02091116693416593,0.0003351195507743461,-0.02929196636614844,-0.000477481306583683,0.00245727880212971,0.00084906172816584
8.33,0.029533271151085977,-0.006359146289244512,0.016707284348082885,0.010658694086902436,-0.004619506491265975,-0.021695991024376037
8.34,0.022451782931269267,0.008015079008192757,-0.025838860291526048,-0.007540512866730688,0.013133034741508407,0.00837230996849884
8.35,0.01836192925158039,-0.0067203659239958675,-0.5730308085042938,0.02044516459549291,0.021900028031116674,0.012409620048700947
8.36,0.025673599044423352,0.0041756741869379745,0.01324191030256542,0.008861215267329116,0.005276782731917437,-0.0015911624090949998
8.37,0.00922900361210099,-0.005228372510806204,-1.0482028485935717,0.004222624634483078,0.013328052628128879,0.0009496955109219761
8.38,0.02538777293951299,-0.016796059441310292,0.07032947203384814,0.004726026563819541,0.009840057597804193,-0.0037805853922152754
8.39,0.009227961534721931,0.00403352099289793,0.04322488233525415,-0.004953330952066103,0.012950401950537893,-0.003406569435774374
8.4,0.01382519476789501,0.005529314703627131,0.030355719325534998,0.008409832648300012,-0.006315578085520222,-0.029424068504709595
8.41,0.008541657445889613,0.001196640347231743,0.04064920400362382,-0.016489807500523097,0.012400839367050248,-0.008591597449994562
8.42,-0.004644256380212104,-0.01950583349164235,0.031182444692950263,-0.007466617867362323,0.0017360540873948707,-0.018697162375261464
8.43,0.017279006981567247,-0.007755318723584369,0.021727183746439463,0.008610170869544971,0.011700484692666884,0.0027972355328581104
8.44,0.006985484044556622,0.0016322546772768306,0.039532830688553025,0.0015855385614430583,-0.00441064911285918,-0.004250509199800892
8.45,0.004252664043190555,-0.003674216037009074,0.026996286297044824,-0.012560184441901818,0.013606963871871052,-0.0034060208566410524
8.46,0.01160142795842585,-0.002384510878449984,0.01369355253564445,0.011802927711327205,-0.0011799011684203004,-0.014562156291846333
8.47,0.007469972501774347,0.01582363253272145,0.01831348067233898,-0.016502714597807236,0.0027830228268534256,-0.0009697816964638922
8.48,0.003597956190487097,0.001127849266684999,0.03957867303104499,-0.011177361775755458,-0.0044923567460311425,-0.0023948115584956106
8.49,0.006757245050183231,0.01618180667323071,0.019502154796454202,0.008818439346133786,-0.000285837325270372,-0.00485705258950651
8.5,0.013913879486497933,-0.001816989569721403,0.01647337757233641,0.00902042556038112,-0.001315142516211911,-0.01462815194232308
8.51,-0.01522138288075468,0.0017726677402734494,0.009449504882929807,-0.011557152994356565,0.004498335870645982,-0.000663808206774054
8.52,0.01531934455526735,-0.0018944266373574531,0.02484245082992982,0.012468408766781416,-0.005610726820623109,-0.0026888766318113274
8.53,0.0036420552287640667,-0.0007286889238627581,0.023740418695850155,0.008602112577455195,0.010804157093935127,0.012097095677917207
8.54,-0.01605398084555651,0.020846388303647767,0.028787113229806226,0.009728546402744707,0.003908345307567864,-0.012342580509657268
8.55,-0.00026194618130321364,0.0024602454049496587,0.00878579897007679,0.005369720298314295,-0.003710467331154904,-0.00981467306063041
8.56,0.03355311903272798,0.00501949264472352,0.006062826990767465,0.02377531589734933,-0.011182145529887555,0.011131724138503102
8.57,0.008709385626032077,-0.005719578386486205,0.036755676872312126,0.018487662340261286,0.0001287705603370791,-0.0029287742908376637
8.58,-0.01069476302962482,-0.0110938304722123,0.6333836650467457,0.0029383122786028316,-0.008811960972032618,0.0015244633253456608
8.59,0.021383058903224672,-0.009615657370921956,-0.008957706053502842,0.005200997100870127,0.0023844150602334063,-0.005352295284075534
8.6,-0.0036362560504567655,-0.0021475694325816955,-0.022804530034480283,0.0007170308978455093,0.007045035388833745,0.008274282807696074
8.61,0.014316807008481782,0.0020735575794771054,-0.008534721156777723,0.006287930520817343,-0.020043418698374078,-0.002313046085754262
8.62,0.012722818458779449,-0.0187492579140941,-0.006349467125070346,-0.018660507965108118,-0.009434063462778999,-0.022202829122539222
8.63,0.010771996891466377,-0.014536711290912696,-0.004367679765195649,-0.006418997963242967,-0.0017686142742201205,-0.006527307977424451
8.64,-0.0034816906837735456,-0.011150758003711847,0.6185381622826647,0.00912597012601182,-0.0020226411741788115,-0.01464921926747104
8.65,0.01695431088127706,-0.005435468875910656,-0.035048169288658546,-0.010898140679226342,-0.0009650068342796437,-0.0018957883572888637
8.66,0.007976191808264114,-0.009209944297381234,-0.04188636702401426,-0.004773468719305008,-0.007625969415909625,0.0097118052835382
8.67,0.012372275506467263,-0.02169660771381546,-0.019699147115338336,-0.010242031381142625,-0.016854647594747935,-0.0033994696603252663
8.68,0.004647422324861504,-0.004616246764724244,-0.013574773320149773,-0.012379628545759979,-0.010988043235453653,-0.012355309137018072
8.69,0.0070090564419960305,-0.007777379411344988,-0.022292695196625002,-0.004582318706748292,-0.025315258356965468,-0.004700904775601311
8.7,-0.00015877323989945194,0.001367993736747705,0.034412908454803354,0.0012094912450381504,-0.008285124255662964,0.0025677272333755148
8.71,0.017040365054394078,0.0003248215745199354,-0.01711046780578828,-0.01948540522067812,-0.017107180290923816,0.00040295176815182505
8.72,0.015579476685867582,0.00480892360071109,-0.030615190821193426,0.005700295995196286,-0.010692414091328017,0.0070574229867352125
8.73,0.011568784997344629,0.006532676213451018,-0.0206047373862754,-0.004044375405927747,-0.014037934094248125,-0.006858948684230486
8.74,0.01068960393047962,-0.013743122779293359,-0.004295536408832967,-0.007765537738873055,-0.00345504796382209,-0.016805429843349283
8.75,0.024988549524701847,-0.019102574252699806,0.013405263243033035,0.009411039115914715,0.025858028465013283,0.004148327870413858
8.76,0.01074075142428818,-0.019276101125691017,-0.02711203267072608,-0.007571428255266664,0.016514929869497867,0.0055880326497221005
8.77,0.02247394314530486,0.017187871950923424,-0.260967857761935,-0.015514414301399073,0.016682850619362446,0.0037247940752726805
8.78,0.018039630837366368,0.006455032027901413,0.0009647420352330753,-0.013420021037877277,-0.005426718599375416,-0.0005553102945050527
8.79,0.02107558831016928,-0.015005434643926202,-0.012281008562259495,-0.0008682806662542971,-0.001748147441281777,0.02203898393554763
8.8,0.014577843003475564,0.002676086003604241,0.0010475351183635508,0.007378976054584789,0.012450138067917267,-0.00837532194482123
8.81,0.0062142688352518315,-0.013329938623029211,-0.01022730269283353,0.0072822927781501755,0.0089302720588084,-0.004126296684759565
8.82,0.018529898037761783,0.00888666675093653,0.4597322790818359,-0.01741265741213676,-0.029439060738958994,0.009653903207612852
8.83,-0.004212271784951923,0.012304570910144197,-0.03879334207350005,-0.024743192938175677,-0.014045531053505042,8.207140882175766e-05
8.84,0.00562670524403267,-0.022479101536122596,-0.6771471423921004,-0.018769752451425977,-0.004248905035728351,0.004205025638927161
8.85,0.011674152936280664,0.004775717090980222,0.1642012675099979,0.004274888405311165,0.013164322330609057,0.003797915797145426
8.86,0.029024940120618355,-0.0005551033972038977,0.010000953285271914,0.0028894381245464585,-0.011696535212198121,0.0064135529091785435
8.87,0.0004456372125835866,0.030381901863601256,0.00852757230964803,0.0022559499941696808,0.005277129277364261,0.0020776183250175778
8.88,0.0027073690004407285,-0.0167512463691822,-0.014163121850242228,0.007338711552263424,-0.00359423733700102,-0.006637939867270014
8.89,-0.0023064679587952025,-0.0022720852899483068,-0.002431074233842932,-0.0018536717063312872,0.00110597925131447,0.0012780800445744245
8.9,0.021770081997193578,-0.005045654643211946,-0.003819084883912754,-0.016634005935592507,0.016273699023090504,0.008204544865713188
8.91,0.029623981529629903,0.007833852983616909,-0.010879808079001884,-0.009331999328290584,-0.012794609253229875,0.0069790766248731765
8.92,0.01093093187326855,-0.0015623648291532748,0.5664883122955107,0.010784594863783891,0.0010860716530101317,-0.005627215009024794
8.93,0.021454109992736732,0.009444553468473232,-0.03934162629243091,-0.009903735282422912,0.001610761153813232,0.0007725960952498002
8.94,0.024849526276610526,0.01022014403929318,-0.03809403535033825,0.014581911907078115,0.026350724783750328,-0.010771181615424482
8.95,0.021580887231873846,-0.0024807248927574462,-0.029731830900212575,0.004152790862218096,-0.00016898392148656516,0.005555996917079963
8.96,0.023094795377932652,-0.009342952378126844,0.8981880727199019,0.0014054810767521711,0.0063163818602823395,-0.007240388621621286
8.97,-0.009982483463580202,0.008459787848008772,-0.0946147073198384,-0.01627803338974641,0.015846186478588816,0.005513081347714777
8.98,-0.0016744161539396715,0.004805331571027646,-0.05088953563095116,-0.006832063405001976,-0.004922999908140149,-0.006971688280907775
