timestamp, accel_x, accel_y, accel_z, gyro_x, gyro_y, gyro_z
0.01,-0.1,199999.9,519999.89999999997,0.017163012429129973,0.003687285349993812,0.0015868770766405828
0.02,0.0,-200000.0,-519999.7106881423,0.034325980822939584,0.0027484846081423145,0.0010504426189850036
0.03,0.0,0.0,0.273847815108752,0.05148897152421884,0.002901052996487043,0.0012371108877677456
0.04,-0.00037135301760640136,-0.0017284505027248542,0.2608045433305506,0.0686519569439189,0.0027921508111772133,0.0011757745316907035
0.05,-0.0006474955014725932,-0.0051795473154925276,0.24953961002438518,0.08581494466638843,0.0027414238045462952,0.0011970256690155853
0.06,-0.0009385672662757473,-0.010348843861862633,0.23958547519242757,0.10277578309844654,-0.014218666256069249,0.0009810070271885256
0.07,-0.0012113844595469847,-0.017133645275890785,0.17290926432877995,0.11993890050166317,-0.018053679851779858,0.001239900637977953
0.08,-0.0014933726515919427,-0.025835941102059223,0.22551998725361955,0.13710208139348895,-0.016955523683948332,0.0011259389231955263
0.09,-6.70881036778674e-05,-0.03612067901670457,0.21731937444258165,0.15426523749628263,-0.016989738872226816,0.0011303879927883785
0.1,0.0017409580013552077,-0.04811082291666935,0.2096414650054612,0.1714283944578629,-0.0167131586499899,0.0010965103176642217
0.11,0.0034361441749439013,-0.06180352228213337,0.20235050683936606,0.18841486729911222,-0.03369807893059448,0.0009293220157832282
0.12,0.005106360231606513,-0.0768082786706259,0.14509675388296728,0.20557811540811485,-0.03689302751641873,0.0011238076961770586
0.13,0.006799948723238522,-0.09431350763478008,0.1915361860937992,0.2227414398608307,-0.03549151130762832,0.001008346924751097
0.14,0.010161102625751315,-0.11308068216919764,0.18449521125063484,0.23990472162049764,-0.035116483146277744,0.000992579722260707
0.15,0.013836658966317788,-0.13353936076043738,0.17765405612379936,0.25706799636729394,-0.034433792997064214,0.000946429690473582
0.16,0.017367277981921808,-0.15568663812359773,0.17094831196828864,0.2740697326164792,-0.0514334529911748,0.0008414507876592441
0.17,0.02076005025529829,-0.1786962061700592,0.11857744645737966,0.29123307075143656,-0.05376359048844794,0.0009906237143633082
0.18,0.024278567077663987,-0.2050960036115157,0.16069865008461193,0.30839648399939157,-0.05200599828703667,0.0008821348032284922
0.19,0.029384008339988103,-0.232275908729207,0.15379138577742424,0.32555984168315844,-0.05114239992371497,0.0008584282640858916
0.2,0.03471485299273056,-0.2611333056101728,0.14694492815436888,0.34272318450939726,-0.04999387444418408,0.0008107687846962356
0.21,0.03986379734768274,-0.29166502669042416,0.14011334116048602,0.3597297290375712,-0.0669980227456074,0.0007927760045662885
0.22,0.044720332463742865,-0.3224275606683591,0.08903673503368736,0.37689314119381556,-0.06836605249129071,0.0009122151277591235
0.23,0.04987094235412953,-0.35784900127566743,0.12940819004825244,0.39405662296438404,-0.06622943048374608,0.0008205756873122725
0.24,0.05648990171826462,-0.39336818622004444,0.12209956999242877,0.4112200443911441,-0.06484577901471343,0.0008005021058123152
0.25,0.06323623874162154,-0.43055017769688675,0.11475051927334334,0.42696710005796207,-0.0632103897524355,0.0007619206952373305
0.26,0.06976169234427344,-0.46939145880386945,0.10732173347349772,0.42884952739193943,-0.08037095393413356,0.0010299814328052312
0.27,0.07614666311020218,-0.5099246743078822,0.1004805971405176,0.4315944402837084,-0.08060346556801937,0.0009277100589295926
0.28,0.08235717515366284,-0.5519445228685527,0.09293908778573723,0.43194160404374815,-0.07811382233755171,0.0009256338771510914
0.29,0.09026080115179447,-0.5940996611641935,0.08525416440363642,0.430879535782689,-0.07619473225339755,0.0008894067687630077
0.3,0.09817766250755956,-0.636475712720852,0.07744311027124695,0.42836732602763894,-0.0740741884170822,0.000867775206264544
0.31,0.10583843167207042,-0.6788360804321769,0.06953226819206293,0.4246045737359012,-0.09123440331654588,0.0012637272257374917
0.32,0.11330975389656789,-0.7211032486509339,0.062371229638813475,0.4196746361311145,-0.09048388501436397,0.0011248142211326042
0.33,0.12055588519304539,-0.7630306505390649,0.05448666552609893,0.4137396109045684,-0.08762420840882555,0.0011437395628712934
0.34,0.1294904202393917,-0.8045369385101253,0.046477898543173524,0.4069000359074477,-0.08519739992703786,0.0011085442766818872
0.35,0.13834096131457724,-0.8455102263837944,0.03840349911854446,0.3992597443704688,-0.08261101015731287,0.0010932225692876596
0.36,0.14689974420128807,-0.8858546592627192,0.030299686919477153,0.3909325175650136,-0.09977073773873775,0.001614181401358156
0.37,0.15522526420417465,-0.9255729537116508,0.023136006674917553,0.38194232255794947,-0.09807787017601022,0.0014358691514446385
0.38,0.16327700383510987,-0.9644359110261291,0.015256507275296372,0.3724264721131803,-0.09487215205493184,0.00147303117417954
0.39,0.17301419304622428,-1.0024379528239535,0.007323828405958466,0.36244291405476814,-0.09196786363185167,0.0014361957465060902
0.4,0.18257576038541132,-1.0395197739931916,-0.0005886452569825451,0.3520606129141472,-0.08894629346453611,0.001424675031332391
0.41,0.19181351529253438,-1.0756345892026786,-0.008442154388887957,0.34137309570587593,-0.10610553117681809,0.002057529235069929
0.42,0.20077933294525285,-1.1108575274754173,-0.015179473109583341,0.33034263716753837,-0.10352882637213907,0.001840039773232009
0.43,0.2094263965410955,-1.1449512010841545,-0.02260072253790213,0.3191019888491852,-0.1000063640717991,0.001891519160821988
0.44,0.21975736190633227,-1.1779655950228118,-0.030010331748542285,0.3076774572068632,-0.09666229465721332,0.0018505506978776865
0.45,0.22982799255579223,-1.2098750393541025,-0.0373234987804949,0.29611511176153255,-0.09324233114450554,0.0018401254913860015
0.46,0.23954643062751094,-1.2406645552687223,-0.0445034702423186,0.28450087727961704,-0.11040124286286396,0.002567487049026166
0.47,0.24895924222056998,-1.2704628731441403,-0.05043358097367445,0.2727407100669368,-0.10701119063349046,0.0023129802411535347
0.48,0.25801243297349924,-1.2990153240366453,-0.05700980075573625,0.26097496623143984,-0.10320428821976031,0.0023745480771683843
0.49,0.26874894639776836,-1.3264103835552987,-0.0635326447095963,0.24920600434286005,-0.09946255807243959,0.0023274216752814424
0.5,0.27914788687957365,-1.3526434785049446,-0.06990613790947009,0.23746501084661428,-0.09568441284591526,0.002315587624564628
0.51,0.2891696739316683,-1.3777198057418616,-0.07609711747846859,0.22583890852029812,-0.11284328707030833,0.0031184522553519304
0.52,0.29885651123151347,-1.4018058472764494,-0.08095710107625109,0.214180931395262,-0.10871738712634868,0.0028303581941761867
0.53,0.3081472639889733,-1.424630116879655,-0.08642325646235349,0.20264724245862412,-0.10465953168989083,0.0028979494070037384
0.54,0.3191212466376915,-1.4463049915036663,-0.09182128948737045,0.19122145318930378,-0.10056425995987678,0.0028431852392436577
0.55,0.3296879915866066,-1.4668387432692498,-0.09704292068590803,0.1799253136191721,-0.0964694541585265,0.0028278257734756984
0.56,0.3398556610097192,-1.4862490439959686,-0.1020586743294416,0.168852406246186,-0.11362863749352677,0.003687237094739286
0.57,0.34966257891077407,-1.5047262339074052,-0.10571600476794174,0.1578061339388053,-0.10884749938749454,0.003369740856605956
0.58,0.3590415931211191,-1.5219892125806211,-0.1099346188127015,0.14696366651175435,-0.10457196804050098,0.00343969902974361
0.59,0.37010380918437863,-1.538161335759014,-0.11409500363157576,0.13629347842170125,-0.10016742377571858,0.0033763462754445622
0.6,0.380696543801369,-1.5532583904587227,-0.11807498253801896,0.12581158135266207,-0.09579718547022109,0.0033557959607962875
0.61,0.39087093649824156,-1.567305501044558,-0.12184814991655912,0.11562173063349479,-0.11295702053298547,0.004253852416468456
0.62,0.40066139037012866,-1.5805044330186035,-0.12428602328640181,0.10548031100245597,-0.1076013421855157,0.003911509063973264
0.63,0.4099970214375276,-1.5925759606716383,-0.12722981839630165,0.09558839078290775,-0.10314019031321983,0.003980696758799723
0.64,0.4210155834070098,-1.6036427937571318,-0.1301449256629894,0.08590191432777812,-0.09846942382509347,0.0039082748029661924
0.65,0.431509562472919,-1.6137248505110335,-0.13289372301272806,0.07643365190596882,-0.09386351529190036,0.00388131697479488
0.66,0.44156826414619155,-1.6228514768279467,-0.13545197788289443,0.06729945834089529,-0.11102429510084137,0.004801741150300363
0.67,0.4512215803591582,-1.631224692637545,-0.13674377633776658,0.0582117742366083,-0.10517257706055913,0.004439197709772871
0.68,0.46039833829183974,-1.6385808789820544,-0.1384696296469201,0.049396672681661744,-0.10055594351368266,0.0045050280114238206
0.69,0.47125733032976624,-1.6450316666194453,-0.14021036328415448,0.040799552080599266,-0.09565981427501932,0.0044234521679408735
0.7,0.48154344091031615,-1.6505989893467188,-0.14181166260840428,0.03243160785528643,-0.0908557142761073,0.004389283507582617
0.71,0.4913794200746613,-1.6553143591302444,-0.1432505254683747,0.02442154562102569,-0.10801765539997249,0.005317701216692439
0.72,0.5007895156401015,-1.6593701102962655,-0.14353237151709664,0.01644134568785313,-0.10174453778549324,0.004939503298793454
0.73,0.5097067951451845,-1.6625325803154567,-0.14415447875393284,0.008741815198471722,-0.09700020678468893,0.004999926210711496
0.74,0.5203051127672054,-1.6648931135598843,-0.14484385093993524,0.0012594100796914694,-0.09191673628531427,0.004909432112551744
0.75,0.5302886830115677,-1.6664743509764435,-0.14542863887356816,-0.005995159792187748,-0.08694911239434386,0.00486761260421859
0.76,0.5398091674784972,-1.6673086734009246,-0.14588619315247797,-0.012880454155378347,-0.10411234444145548,0.005791641905565193
0.77,0.5488835274233494,-1.6675700670454319,-0.14533211349032626,-0.019761032651817126,-0.09748746937715659,0.005402105375249815
0.78,0.5574545650800788,-1.6670685622699466,-0.14499824651181825,-0.026362673397383067,-0.09264063585275488,0.00545556948137863
0.79,0.5677049549961122,-1.6658673234282162,-0.1447885009753236,-0.03275649009446816,-0.08740462337046473,0.005356642970328987
0.8,0.577304774426815,-1.6639888940517267,-0.1445130708788156,-0.038931572186237495,-0.08230503738231049,0.005307041445471073
0.81,0.5864303212176764,-1.6614657083202644,-0.14414889033531608,-0.04473449284674329,-0.09946960472248176,0.006216260144541659
0.82,0.5950891729169377,-1.6584460853152905,-0.1429504657934899,-0.050562042569768394,-0.09255691552626642,0.005819391502618805
0.83,0.6032401700283019,-1.6547959944190893,-0.14182283742059099,-0.05611868342906359,-0.0876301074202765,0.005864793304784139
0.84,0.6130684065953212,-1.650543927365078,-0.14087730310308189,-0.06148186699988501,-0.0822729540317949,0.005758108625977572
0.85,0.622215886805777,-1.6457118359802791,-0.1399060631968041,-0.0666400779022839,-0.07706975009500358,0.005700849338060065
0.86,0.6308795728122985,-1.6403316948121471,-0.13888498180847364,-0.07142909964635188,-0.09423562160333065,0.006586687970256914
0.87,0.639055177364331,-1.6345202298850836,-0.13723588139669118,-0.07627334451101797,-0.08709301599044553,0.006186140290441365
0.88,0.6467245146624112,-1.6282095305797384,-0.1354768258821082,-0.08085861352543426,-0.082106133430619,0.006222768715612796
0.89,0.6560686424713497,-1.6213883813875896,-0.13395653567727095,-0.08526755506745194,-0.07665582598950887,0.006109135671016508
0.9,0.6647070461374832,-1.6140778377859988,-0.1324495097065892,-0.08948784197649834,-0.07137415715670867,0.00604454860344512
0.91,0.6728537104762344,-1.6063090909312905,-0.13092999427755103,-0.09334596979554576,-0.0885412403789879,0.0069001409743378915
0.92,0.6804896995950938,-1.598162756124566,-0.1290150361654696,-0.09728917066756773,-0.0812205011908187,0.006499195090504254
0.93,0.6876271810400014,-1.5896448334196123,-0.12677706379804476,-0.10098761047687213,-0.07619093851794088,0.006526675629930847
0.94,0.6964367666659199,-1.5807008351842455,-0.12483161896170714,-0.10452805827325551,-0.07067215149068434,0.006406995267482173
0.95,0.7045204488977108,-1.571350733247101,-0.12293605564650534,-0.10789730513214521,-0.06533410634291759,0.006335571329511436
0.96,0.7121059358097814,-1.5616247298311237,-0.12106254452248777,-0.11091425116075507,-0.08250226332342114,0.00715558427481831
0.97,0.7191566429227969,-1.5515641952212889,-0.11905060297578984,-0.11404406408724357,-0.07504919775227045,0.006757147342110994
0.98,0.7257227261793509,-1.5412543136328338,-0.11647011945115082,-0.11694451790654926,-0.06999202017739198,0.006775388407997452
0.99,0.7339580829447689,-1.5305951951560814,-0.11423206384364448,-0.11970548039689351,-0.06442629939861483,0.006650616353392616
1.0,0.7414517104906149,-1.5196056152078086,-0.11207740389096443,-0.12231288470984618,-0.05905109635719539,0.006572967773558305
1.01,0.7484420832182259,-1.5083146562488992,-0.10997585054184356,-0.12457982863025456,-0.07622015919678028,0.007353424509192291
1.02,0.7548718398496523,-1.4967226284312574,-0.10801583670172477,-0.1269845534067388,-0.06867488614189293,0.006960040060293067
1.03,0.7608368321884718,-1.4849966831498307,-0.10520975838090862,-0.12917577565683125,-0.06360303826665019,0.006969182987016075
1.04,0.768468202332756,-1.4729907533173048,-0.1027916984952526,-0.13124549200932767,-0.058009036795512774,0.006840299389157922
1.05,0.7753459363384063,-1.460722355837163,-0.10048714180754814,-0.13317886414077418,-0.05261325957421282,0.0067571251805878495
1.06,0.7817166518275798,-1.4482193705589452,-0.09826301393900394,-0.13478501003758617,-0.06978304449372606,0.0074952315153064145
1.07,0.7874990398043513,-1.4354404545002808,-0.09648219347013764,-0.13655049792563212,-0.062180379070246525,0.007109096729711774
1.08,0.7928422558300952,-1.422635156878016,-0.09354673888850584,-0.13811831057234283,-0.057104907512690956,0.007109470135121954
1.09,0.7998489509747353,-1.4096117003425945,-0.09104050494812554,-0.13958165804699896,-0.051498649659983756,0.006977455232057094
1.1,0.8060935947956649,-1.3963863174559776,-0.08867449203364686,-0.1409250568615094,-0.04609650284121757,0.006889511402857512
1.11,0.8118286437421018,-1.3829856347946645,-0.08641256087571492,-0.1419554415455235,-0.06326682207956325,0.0075834905442697205
1.12,0.8169457081391718,-1.3693271621839642,-0.08491655925979558,-0.14316315569974308,-0.055636715801017575,0.0072064776919922
1.13,0.8216545982348,-1.3557411419995447,-0.08192759192837684,-0.14418867930488816,-0.050566992628551896,0.00719855648136764
1.14,0.8280241102812114,-1.3419916553125688,-0.07940483701673884,-0.14512557927006364,-0.04496214767440745,0.007064370906587009
1.15,0.8336262343150436,-1.3280936527060305,-0.07704586298729055,-0.14595787646463906,-0.03956571643421981,0.0069724450155476654
1.16,0.8387172604421012,-1.3140724787064073,-0.07481122274555219,-0.14649204936650367,-0.05673638771681176,0.00762138426509629
1.17,0.8431586971649474,-1.2998059613522628,-0.07368517906058969,-0.14721792498717887,-0.04910439193144889,0.007255064231039518
1.18,0.8472279628665702,-1.2857014626277419,-0.07069958680716582,-0.14777655564881315,-0.044048329442461266,0.007239433265818351
1.19,0.8529550636030003,-1.2714814360847981,-0.06821333066397983,-0.14826107202174763,-0.03845648141546884,0.007104002351460979
1.2,0.8579121246612975,-1.2571595753385623,-0.06591162126312611,-0.14865515987342473,-0.03307598384259952,0.007008892001818104
1.21,0.862357541693004,-1.2427599301823022,-0.06375148888793092,-0.14876646797970625,-0.05024683743473546,0.0076126029849093325
1.22,0.8661198778822654,-1.2281229217769862,-0.0630619283725764,-0.14908032470371943,-0.04263456580668506,0.007258269480115525
1.23,0.86955059332261,-1.2137278835488985,-0.06011963126439923,-0.14924122596103442,-0.03759881639786212,0.007235591779139085
1.24,0.8746364429929043,-1.1992589365306117,-0.057706363065790356,-0.14934114080794036,-0.032029720440235165,0.007099793244464057
1.25,0.8789519173063587,-1.1847285609967173,-0.055496044772951336,-0.1493635825800058,-0.026673744626411405,0.007002288130271353
1.26,0.8827560429605641,-1.1701595110302776,-0.05344199308865427,-0.14911887235597227,-0.04384462816269827,0.00756118111302636
1.27,0.8858418290530468,-1.1553577336265164,-0.05323908716547976,-0.149084204482279,-0.03627020110190383,0.00721987468380282
1.28,0.8886405872904346,-1.1408681142377475,-0.05036536517621926,-0.14891015120407752,-0.03126033852434401,0.0071908639349686585
1.29,0.8930918713273561,-1.1263403519023996,-0.04804741173813909,-0.14868686546819834,-0.025722157792180973,0.0070555184622323585
1.3,0.8967744190466198,-1.1117857722808822,-0.045948902176462525,-0.14839784656969954,-0.020397878904666468,0.0069563856132607875
1.31,0.8999466436412917,-1.097225842006111,-0.04401926723573979,-0.1478574495864553,-0.03756866028462932,0.0074713577509989545
1.32,0.9023636741323227,-1.0824354751726162,-0.044339236993096165,-0.14753147077605352,-0.030047120141330826,0.007143889050358676
1.33,0.9045417747180484,-1.068017717607006,-0.04154714972059992,-0.14707892959877558,-0.025067800432277326,0.007109286159761617
1.34,0.9083698849024491,-1.0535922125143315,-0.039335098804826885,-0.14658758124552826,-0.019567320196151868,0.006975150451102371
1.35,0.9114325610004581,-1.0391692015510046,-0.03735751818112476,-0.14604106055811936,-0.014280695115400241,0.006875122353277305
1.36,0.9139865650178991,-1.0247688790343545,-0.03555979713354418,-0.1452589680993204,-0.0314512637983112,0.007347459278285259
1.37,0.9157471417542418,-1.0101389345429368,-0.03642728785280269,-0.14469282313212498,-0.023994954357732905,0.007034431303238128
1.38,0.9173198322942611,-0.9959324955310933,-0.0337200283695438,-0.1440121875602404,-0.01905005620339247,0.00699498468160093
1.39,0.920540104694112,-0.9817438202119888,-0.03161505965465494,-0.14330191074541285,-0.01359287388162379,0.006862746660385927
1.4,0.9229996273879548,-0.9675821455701339,-0.029758529791479305,-0.14254590077416354,-0.008348812763223839,0.006762511955524287
1.41,0.9249526584353962,-0.9534664145327554,-0.02809164495687355,-0.14157006005952064,-0.025519079799585596,0.007193801857648883
1.42,0.9260729064558548,-0.9391211361808871,-0.029521956150801998,-0.1408091417337978,-0.018137987227324362,0.006895631011009004
1.43,0.9270586869319919,-0.9252410175086823,-0.026895035425411606,-0.1399450638640666,-0.013230732543229956,0.00685208028431608
1.44,0.9296897048471919,-0.9113997694321085,-0.02489106627479032,-0.1390593350227589,-0.007821423900045664,0.006722356155755215
1.45,0.9315657887065676,-0.8976057093157408,-0.023148810512907403,-0.13813626037197246,-0.002623939284019653,0.00662255264591992
1.46,0.9329380043360258,-0.8838765540453153,-0.021605163276205985,-0.13700894459064766,-0.019793836400771644,0.007014611868765807
1.47,0.9334372464847585,-0.8699177937820934,-0.02360626396580301,-0.13609327206716476,-0.012495891432052052,0.006731547799443192
1.48,0.9338572412515012,-0.8564570273783545,-0.02104946464243085,-0.1350850499622418,-0.007628947620137057,0.0066846106269024845
1.49,0.9359202074915585,-0.8430522996505374,-0.019135056064101263,-0.13406208268177996,-0.002271210385060533,0.0065579435495547985
1.5,0.9372349647429612,-0.8297110963795262,-0.017495254063248922,-0.13300918130245953,0.0028764546842734136,0.006459153248407182
1.51,0.9380488440174917,-0.8164499373464196,-0.016062526562166113,-0.13176739970682502,-0.014293023337437996,0.0068139623742710905
1.52,0.9379490370969856,-0.8029594686398411,-0.01863681976743692,-0.1307320276791563,-0.007084366327464139,0.006546106604162941
1.53,0.9378264360865307,-0.7899915168430027,-0.016135889957524796,-0.12961401968563005,-0.0022599320588670866,0.006496468288941251
1.54,0.9393446155869789,-0.7770932779926909,-0.014295888774995547,-0.1284871817124068,0.003043291136203146,0.006373328434981688
1.55,0.940122025999135,-0.7642714948907781,-0.012743265465076092,-0.12733692412909914,0.008138554013947318,0.006276074422396172
1.56,0.9404018496383948,-0.7515415220460397,-0.01140595649928855,-0.12601284858499426,-0.009030472832596715,0.006595723821418669
1.57,0.9397270820532544,-0.7385832596007447,-0.014551780509464152,-0.12488828607959528,-0.0019156844466288033,0.006343047194044465
1.58,0.9390866499936479,-0.7261643014011554,-0.0120898605970865,-0.12369033223455644,0.00286443900582551,0.006291352778970215
1.59,0.9400848810697804,-0.7138256563798961,-0.010306775308777105,-0.12248856625050357,0.008110856133519178,0.006172138580206028
1.6,0.9403503283467174,-0.7015734116500028,-0.008823925092826812,-0.12126907574021745,0.013151702291497747,0.00607688342849304
1.61,0.9401217249815907,-0.6894217906250333,-0.007564622386269093,-0.1198904674671298,-0.004016856166156255,0.0063635272820222084
1.62,0.9388977736091153,-0.6770438938374923,-0.011277495204353727,-0.11870309187244289,0.003000842866601224,0.006125886278203077
1.63,0.9377654239778321,-0.6652149751396053,-0.008836287150870703,-0.11745092893010312,0.00773519270383881,0.006072734828828755
1.64,0.9382696945747782,-0.6534742877484234,-0.007091408207315908,-0.11619916471339448,0.012923073934467327,0.005957775220233558
1.65,0.9380495653832366,-0.6418273467723168,-0.005659868200780238,-0.11493462701172738,0.0179079792278272,0.00586492077176479
1.66,0.9373391197492476,-0.6302872808916504,-0.004460273643758228,-0.11352525255173256,0.000739893806827225,0.006120738633291424
1.67,0.9355930622478859,-0.6185241242739892,-0.008733896343926517,-0.11229770937073917,0.007658470191876999,0.005897890599691729
1.68,0.9339954912696014,-0.607313158571543,-0.0062945945344949905,-0.11101337058390162,0.012345873618915251,0.005843831390124043
1.69,0.9340325752293932,-0.5961960215827844,-0.004568880704880485,-0.10973292047352229,0.01747397668076079,0.005733388875159865
1.7,0.9333539158218329,-0.5851777359389132,-0.0031699743985313944,-0.10844397561454996,0.022401841977512337,0.005643277162856038
1.71,0.9321888336566442,-0.5742703732636301,-0.0020117050780754653,-0.10702400489520172,0.005234223930134372,0.0058704421833102585
1.72,0.9299487114444727,-0.5631443739950726,-0.006838748660698002,-0.10577558722795338,0.012052682890774276,0.0056620595154478785
1.73,0.9279130866113317,-0.5525679844176068,-0.004382756841891933,-0.10447778132240125,0.01669221730725041,0.005607589847698513
1.74,0.9275102342065633,-0.5420890310148252,-0.0026575133205142265,-0.103186713990761,0.02175972443888699,0.005501864221342646
1.75,0.9264004589437658,-0.5317121175352213,-0.001272991703160642,-0.10189082577226924,0.026629820589680265,0.0054147793358920475
1.76,0.9248082827972848,-0.5214482979809532,-0.0001381833314439973,-0.10047720787396823,0.009462656068522732,0.005615432347893694
1.77,0.9221028094652528,-0.5109715951157057,-0.005510885330295423,-0.09922421213861979,0.01618091254541657,0.005421115663449855
1.78,0.919656506639388,-0.5010367953595107,-0.003020348593452127,-0.09792867827142152,0.020771872798552752,0.005366680068292776
1.79,0.918841183340513,-0.49120134892888245,-0.0012777243085793089,-0.0966421680013025,0.02577833732586929,0.005265812645354209
1.8,0.9173278291874087,-0.481469508066823,0.00010976798137107835,-0.09535396861342081,0.030590258664415233,0.0051819833664134346
1.81,0.9153361991975917,-0.47185134963712017,0.0012380259306610242,-0.09396078280552195,0.013423527580070087,0.005358212090639056
1.82,0.9121945089995975,-0.4620273342936798,-0.0046725733326979935,-0.09271683896950644,0.02004229439257456,0.005177502423452044
1.83,0.9093648921754127,-0.4527330491299608,-0.0021307517172886037,-0.09143667611978487,0.024584165707879267,0.00512349300945718
1.84,0.9081645596364929,-0.44353861357038227,-0.0003540847615113307,-0.09016732632111528,0.02952946651832957,0.005027571217910594
1.85,0.9062750807975473,-0.4344479889617503,0.0010525199556354892,-0.08889893510949913,0.034283091318115806,0.004947174240902922
1.86,0.903911534623214,-0.42547031656070544,0.002189890970782926,-0.08753771609351786,0.01711676906505875,0.0051009969448505684
1.87,0.9003629658765888,-0.41629501543738456,-0.004251145462319528,-0.0863140919096978,0.023637459251392934,0.0049333869858592125
1.88,0.8971772038934844,-0.40763344536287605,-0.0016426577431616352,-0.08506006229973684,0.028129894669288443,0.004880144722966165
1.89,0.8956191374343003,-0.399071040657617,0.0001833045004673295,-0.0838182030640694,0.033014197104641325,0.004789206934793517
1.9,0.8933807346267475,-0.3906115254359577,0.0016237506628158371,-0.08257951938413836,0.03770965365534595,0.004712370540105716
1.91,0.8906725410773308,-0.3822631478378469,0.002784472812322747,-0.08125955663314956,0.020543712606990363,0.004845723543891045
1.92,0.886746449658693,-0.373726465081603,-0.004180032178169313,-0.08006543620567105,0.026968353550860847,0.004690667952894938
1.93,0.8832313645779077,-0.36568430182626344,-0.0014909941725704812,-0.0788462431295098,0.03141115489922908,0.004638484697158024
1.94,0.881342501903859,-0.35773965207042124,0.0003979877050142022,-0.07764020333566853,0.03623487682956146,0.004552525182500147
1.95,0.8787819811917341,-0.3498960496095549,0.0018854881744800878,-0.07643917411447777,0.04087251402330619,0.004479333209624655
1.96,0.8757560025973721,-0.34216089236593916,0.003082287420852481,-0.07516778584064777,0.023706924795539895,0.004594061694293461
1.97,0.8714816012089788,-0.3342477167400659,-0.0043993129139607845,-0.07401052339031465,0.030038082128345314,0.004450986505725213
1.98,0.8676635435811431,-0.32680721817612834,-0.0016173928329976661,-0.0728330643383995,0.03443118374478162,0.004400107592282952
1.99,0.8654703599986213,-0.31946180085284936,0.00034676425286761514,-0.0716694192877731,0.03919496581010688,0.004319081496370982
2.0,0.8626140166800855,-0.3122148484635545,0.0018929873490947102,-0.07051228233549146,0.04377532733503511,0.004249577501532863
2.01,0.8592965955800391,-0.3050729522335871,0.0031370619169024394,-0.06929506503811615,0.02661005982746932,0.004347429132359193
2.02,0.8547028149663571,-0.2977641377821527,-0.00485589357168692,-0.06818041507767317,0.03285076944960024,0.0042157402790964525
2.03,0.8506075617931153,-0.29090407180021316,-0.001970304168708026,-0.06705001136536526,0.03719422402925528,0.004166367530610515
2.04,0.8481359677747768,-0.28413603807564414,7.963418369172359e-05,-0.06593380721096537,0.041898903234909156,0.004090195786705172
2.05,0.8450094913725614,-0.27746330391487106,0.0016947316083815167,-0.06482531158167822,0.04642270465672222,0.004024387278429097
2.06,0.8414263576650427,-0.2708916978289011,0.002995788861426263,-0.0636663663892692,0.02925772888763088,0.004107008208643313
2.07,0.8365417265354669,-0.26416492691083704,-0.005503402995543638,-0.06259869171438809,0.03541143576906644,0.003986099189890496
2.08,0.832194398280306,-0.25786139454808676,-0.002504847174122915,-0.061519296005013324,0.03970540185298674,0.003938394207318722
2.09,0.8294696557942238,-0.2516463706747629,-0.00036000809444658444,-0.06045425239722718,0.04435198787783946,0.0038669683124556028
2.1,0.8260980527563522,-0.2455230341436021,0.001332667132203369,-0.05939785723829901,0.048820096047126296,0.0038048309750573993
2.11,0.8222742480157308,-0.23949649463617106,0.002698998819994358,-0.05829999440667563,0.031655382802231756,0.0038737638444131177
2.12,0.8171267889245382,-0.23332703266376598,-0.006301886266157908,-0.057282453402365305,0.037725885496694804,0.003763022566480624
2.13,0.8125517824764117,-0.22755418087605506,-0.0031824701807181555,-0.056256836603132125,0.04197061623178696,0.0037171101878087378
2.14,0.8095984370659615,-0.2218659613983931,-0.0009350046425993241,-0.055245529045659734,0.04656026995404215,0.0036502967812613793
2.15,0.8060059682879483,-0.2162654870385694,0.000842600087480605,-0.05424358243242892,0.05097368430855758,0.003591778611122708
2.16,0.8019657844915429,-0.21075719258689674,0.0022811822475432564,-0.053208505430495726,0.03380920562596786,0.003648462198744807
2.17,0.7965829234013455,-0.2051185437679237,-0.0072173594745095215,-0.052243220217060016,0.03980060566345916,0.0035472770207860493
2.18,0.7918038584087128,-0.1998491780685896,-0.0039704847054622405,-0.05127313924854854,0.04399643856000681,0.0035032488510118136
2.19,0.7886456844508061,-0.19466032085802,-0.0016139487613031633,-0.05031716266846734,0.04853045242499153,0.003440894047809339
2.2,0.7848558152590002,-0.18955503633399928,0.00025469866216099035,-0.04937106192299058,0.05289028786302439,0.0033859193412872956
2.21,0.7806227455930959,-0.184537128031792,0.0017713076516656656,-0.04839953255365548,0.03572601737723019,0.0034316895734760097
2.22,0.7750312332910347,-0.17940160120133442,-0.00822127919519744,-0.04748773947437371,0.04164267288859479,0.0033394545935893616
2.23,0.7700709096902791,-0.1746077083009112,-0.004841522631693351,-0.046574087393146855,0.045790020376737205,0.003297372525657451
2.24,0.7667308667769213,-0.1698900413327209,-0.00237063186858677,-0.04567420239971312,0.05026980032685348,0.0032393059690418455
2.25,0.7627662273712588,-0.16525162899405643,-0.00040594461125920134,-0.044784537357654426,0.05457727141281139,0.0031877791138085936
2.26,0.7583629272311931,-0.16069568669507817,0.0011933906307604047,-0.043876523340998945,0.03741318458012109,0.0032238711650646405
2.27,0.7525887711024026,-0.1560348801010747,-0.009289967195513782,-0.04301870724203846,0.043259667658128706,0.003139990785364226
2.28,0.7474691361042396,-0.15168806983822947,-0.005772956406246976,-0.042161647146775255,0.0473590083032399,0.003099890446772081
2.29,0.7439693348043619,-0.14741311916921518,-0.0031834598956947957,-0.04131791039895837,0.05178605706496406,0.003045929054013689
2.3,0.7398516895529283,-0.14321303052788892,-0.0011187271198309645,-0.04048459103105865,0.05604246339402297,0.0029977380873943958
2.31,0.735299946186263,-0.1390904736719989,0.0005670815639291504,-0.03963939743309287,0.03887853762049759,0.0030252893470538657
2.32,0.7293683511666593,-0.13487568694792174,-0.010404023171872723,-0.03883541111651888,0.04465959503923002,0.002949182159156812
2.33,0.7241104742572446,-0.13094756254439233,-0.00674631216668331,-0.0380344952019058,0.04871146532030842,0.0029110762325226325
2.34,0.720472149851048,-0.12708691016882767,-0.00403486811961784,-0.03724637523496291,0.053087366899793195,0.002861027617941972
2.35,0.7162223741485896,-0.1232967118891537,-0.001866952921147913,-0.03646874495833946,0.057294079497871894,0.0028160475263541117
2.36,0.7115430836668324,-0.11957913345739257,-9.17548703682769e-05,-0.03568513079037317,0.04013029418900078,0.002836101234065486
2.37,0.7054784014592919,-0.11578171462467424,-0.01154774903255884,-0.03493430094168461,0.04585081119211256,0.0027672032687898205
2.38,0.7001024562192093,-0.11224417943545006,-0.007746698429400567,-0.0341885759887295,0.049855797779562123,0.002731084646771025
2.39,0.6963459493203317,-0.10876975919060783,-0.004910755180276283,-0.033455055772419126,0.05418220306008203,0.002684750214095815
2.4,0.691984012901603,-0.10536141865635784,-0.0026372726225076804,-0.03273199170875115,0.05834065173134351,0.0026428459569620283
2.41,0.6871971636979168,-0.10202086012434108,-0.0007704854709800202,-0.032008340086824995,0.04117698828059782,0.002656072022507692
2.42,0.6810214220442923,-0.09861228798868638,-0.012729136926736828,-0.03130947551534516,0.046821555483752844,0.0025942184517000256
2.43,0.6755481789499918,-0.0954380141493516,-0.008761140115609578,-0.030617596113934952,0.05078739326934657,0.002559935387997759
2.44,0.6716929093997237,-0.09232234443601328,-0.005799001918660451,-0.029937258047309925,0.055066376790991134,0.002517158026303145
2.45,0.6672398565377158,-0.08926846043699754,-0.003418477589889335,-0.029267260256551516,0.05917984296195311,0.002478173313364146
2.46,0.6623658160886947,-0.0862776325050163,-0.0014586891339263275,-0.028603702672287484,0.04247666611375392,0.002476873954925044
2.47,0.6560561986512781,-0.08322430688600946,-0.014614663292888963,-0.027952963017201935,0.04763360216825964,0.002431551774814834
2.48,0.6505463291017755,-0.08039169491880216,-0.00986191938778802,-0.027313431997878414,0.05089632434668923,0.0023971218674924332
2.49,0.6465746825501384,-0.07760888305341496,-0.006649952766224487,-0.02668448958882679,0.05535508949488583,0.0023583632236071333
2.5,0.6420450578636938,-0.07488284617274132,-0.0041666185879307704,-0.026065754257718524,0.05943306112659959,0.002321973367918626
2.51,0.6371636714841422,-0.07221522584366369,-0.002120984490261435,-0.025459255733604913,0.04716348782959205,0.0023107097348132
2.52,0.6307950888517766,-0.06949324245830724,-0.016320725855223372,-0.024857145774470596,0.05109918399208424,0.0022718992925926393
2.53,0.6252622379454564,-0.06697032580049722,-0.011403759181405348,-0.0242665659264373,0.051124502475955305,0.002243721477838354
2.54,0.6208643346772291,-0.06449714363476744,-0.007551538843131311,-0.023687116505315665,0.05549198641022319,0.002207619814273828
2.55,0.6160041988079179,-0.062074114008936476,-0.004837330891405145,-0.023117601789305744,0.059568062914014695,0.0021740398195856385
2.56,0.6111027146094017,-0.059704256463177785,-0.0027089159715387723,-0.022565034457571596,0.05121696672936983,0.0021561673980816593
2.57,0.6047050374036189,-0.057289636457014126,-0.017816103650147852,-0.022009772097378255,0.05404022356699602,0.0021224986226713012
2.58,0.599158456009441,-0.05505148172879615,-0.012748479782942468,-0.021467421593626263,0.054148241624098585,0.002095168621246456
2.59,0.5943634415861432,-0.05285935286813981,-0.008744697055362849,-0.020934147701153764,0.05485406417667225,0.002066120932916908
2.6,0.5892434077559017,-0.05071631854924874,-0.005464270600441523,-0.020411906556331988,0.05958666801623499,0.0020336867441309815
2.61,0.5840480629570877,-0.048620038510804875,-0.0032173516473221753,-0.019910018303931604,0.0545147520210238,0.0020124054401887983
2.62,0.5777105572790653,-0.046489080789413606,-0.019115819185344662,-0.019399655294138878,0.05637272903504169,0.001982577199383916
2.63,0.5721594508711902,-0.04451194592469676,-0.013909552833979433,-0.018903205890715785,0.05652589513968032,0.00195640011290959
2.64,0.5670396474122263,-0.0425772464751617,-0.009770224309590958,-0.0184151123606591,0.05703591487756404,0.0019294298340958652
2.65,0.5616900690630366,-0.04068796574330236,-0.0063795151206136325,-0.01793671166907357,0.0585394427409266,0.0019022669238209118
2.66,0.5562834582639731,-0.03884346172711162,-0.003668406343138031,-0.017482614256465013,0.05721251423551514,0.0018779929527326222
2.67,0.5497413757948877,-0.03697309501227153,-0.020236710902565846,-0.01701496859998037,0.05799539725740449,0.001851699127047793
2.68,0.5442880271488981,-0.03523446662434537,-0.014908174605920976,-0.0165620270132477,0.058223158032261954,0.0018266385654016133
2.69,0.5389005860467755,-0.033534830583548114,-0.010647087833604019,-0.01611673717305105,0.05853558156989778,0.0018016134063167106
2.7,0.533389641865778,-0.031877121715595536,-0.007158649459881872,-0.01568048589072722,0.058783971726409215,0.001777037949931431
2.71,0.5278219063753475,-0.030260949239746537,-0.004241355320289131,-0.015270537816768395,0.05874125415934436,0.0017531311736854074
2.72,0.5211606653965362,-0.02862933516034616,-0.0212293986834311,-0.014843545768198674,0.05904258099151711,0.0017289948828994697
2.73,0.5156768609793083,-0.02710799638983019,-0.015778670352517565,-0.014431611110123385,0.05921247788770817,0.0017054003643098773
2.74,0.5101348815128581,-0.025622339006048378,-0.011410218121454818,-0.01402671179940297,0.05936916286178845,0.0016820587651016302
2.75,0.5045177712093007,-0.02417530195586437,-0.007833690958136685,-0.013630446196121533,0.05948819761569785,0.0016590619615923768
2.76,0.4988504107727998,-0.022766283844788404,-0.004840990612819951,-0.013261528218861746,0.059331086882834984,0.0016366961407099005
2.77,0.4921447285077818,-0.02135191146557247,-0.022129234160672695,-0.012872947991417503,0.05949620420474145,0.0016141413681094972
2.78,0.48658404114609866,-0.020027890901275214,-0.01655948242529348,-0.012499533340790958,0.059539183857406495,0.0015920841203255554
2.79,0.4809783105574894,-0.018736415485776092,-0.012094000290119311,-0.012132584711846105,0.059570679492176766,0.0015702673583834657
2.8,0.47531220369378957,-0.017480430107852385,-0.008437075500467017,-0.011773843078861186,0.05956796336042376,0.0015487724882019577
2.81,0.4696093135825308,-0.016259149653308214,-0.005376478782181948,-0.011443215184273622,0.05930972698523898,0.0015278498269334952
2.82,0.4629230408603746,-0.01504136635688269,-0.022971278248462568,-0.011090698655061357,0.059351708880506886,0.0015067801702056628
2.83,0.4573454985745684,-0.013895948853814843,-0.01728899285069474,-0.010753349500184934,0.05928136962432935,0.0014861650827928342
2.84,0.45173496691308657,-0.012780128582079442,-0.012732513958724212,-0.010421915318082724,0.059201553405197865,0.00146577902550332
2.85,0.44607769651427986,-0.01169684240132085,-0.009000800140768206,-0.010098254504226056,0.059091232525217516,0.0014456930396967275
2.86,0.4403959009424696,-0.010645148540433524,-0.005877527335940158,-0.009803224720134826,0.05874566330270295,0.0014261266492634136
2.87,0.43378643066471767,-0.009604650665906433,-0.023783214118111573,-0.009484439741598454,0.05867926409321318,0.0014064482864011218
2.88,0.428245641970193,-0.008620366029887805,-0.017993011915962143,-0.009180732326033938,0.058510265449713696,0.0013871856396716743
2.89,0.42268274473844514,-0.007662916265971376,-0.013349816896379707,-0.00888241009326919,0.05833391022198335,0.0013681405962834594
2.9,0.41708543213392346,-0.006735218294195988,-0.009547262536102608,-0.008591425949867604,0.05813078022823039,0.0013493752120863178
2.91,0.41147451479428554,-0.005836198564423967,-0.006364954323601069,-0.008329370974291402,0.05771205296691641,0.0013310821503968603
2.92,0.40499172764718594,-0.004955004104800764,-0.024584333822019744,-0.008042022210834724,0.05755231441463194,0.0013127063401249099
2.93,0.39953437748874165,-0.0041155974361828385,-0.018689390230974823,-0.007769583233593781,0.05729940763300934,0.0012947110485307949
2.94,0.39406455039969757,-0.0033004451349682995,-0.013962375362552848,-0.007502023108767389,0.05704122704955606,0.0012769220946946454
2.95,0.3885712598927782,-0.0025124339497750725,-0.010091598241501742,-0.007241368594054836,0.05675988161766266,0.0012593937270969646
2.96,0.3830739164145669,-0.0017503813420916003,-0.0068526165364346525,-0.00700974985224996,0.056281788201865794,0.0012422951420919756
2.97,0.3767600688053818,-0.001011795420780004,-0.025387257309716915,-0.006751595908729419,0.05604332948480371,0.0012251381490504991
2.98,0.3714258461240405,-0.000302191498491311,-0.019389571086492197,-0.006508118444577528,0.05572071861465173,0.0012083297477021972
2.99,0.36608753029465646,0.000385561618188035,-0.014580502813998919,-0.00626903854053853,0.05539478877916726,0.0011917166732815076
3.0,0.3607353461321239,0.0010486157364653081,-0.01064303781106446,-0.006036438292826841,0.05504909822969215,0.0011753463796594192
3.01,0.3553873253459017,0.0016882418041319625,-0.007348707526944054,-0.005832814501459768,0.05452459037862692,0.0011593675273535902
3.02,0.34927729441580624,0.0022996678250564173,-0.026199185860775742,-0.005601681737888785,0.054221182014577596,0.0011433504944651919
3.03,0.344099136628806,0.002893405630643997,-0.020099810527085538,-0.0053849379081711835,0.05384214678783518,0.0011276530543912829
3.04,0.3389240706974661,0.003467524889444462,-0.015209553794193198,-0.0051721364294129235,0.053461569296816336,0.001112140252798954
3.05,0.33374343312519983,0.004019222874518391,-0.011206077914494017,-0.004965398259703085,0.05306438171868612,0.0010968536207572109
3.06,0.3285739118963349,0.004549840282308537,-0.00785690879467893,-0.004787434951032738,0.05250531788618319,0.0010819238187583762
3.07,0.3226956532564884,0.005048355049552811,-0.027023032451722884,-0.0045812283907729415,0.05214964497514733,0.0010669725984410962
3.08,0.3177001779741673,0.005539070011550962,-0.020822289634736535,-0.004389079188189112,0.05172633772223574,0.0010523145966748334
3.09,0.31271385773745664,0.006012233750851692,-0.015851016961221376,-0.0042004437989385775,0.05130306298603789,0.0010378309148302697
3.1,0.30772904827447434,0.006465094521956871,-0.0117815544697919,-0.004017467485709952,0.05086605282905563,0.0010235579128007335
3.11,0.3027611385553186,0.006899045956743066,-0.008377442455298478,-0.0038629438858129033,0.05028307976272388,0.0010096104487008668
3.12,0.29713626120919656,0.007297748325640896,-0.027858452256168675,-0.0036796555754506823,0.0498866303462619,0.0009956554086362152
3.13,0.29234429979041465,0.007697238899595504,-0.021556122185018012,-0.003510058201309299,0.04942998753070943,0.0009819695687301835
3.14,0.28756652656447557,0.008081087514710816,-0.01650350011317414,-0.003343572974709829,0.0489747434093572,0.0009684481319141148
3.15,0.28279622972249285,0.008446597616895701,-0.01236760425626926,-0.0031823567053413746,0.04850835669504987,0.0009551229359840742
3.16,0.27804755090343747,0.008795200816535953,-0.008908007700370035,-0.00304917032150019,0.04791087859410255,0.0009420949447790837
3.17,0.2726919463880151,0.009106093274979798,-0.028702752636888818,-0.002886885467231219,0.04748391362047837,0.0009290707591694532
3.18,0.26811912284152584,0.009425163893794775,-0.022298239628071315,-0.002737898506553401,0.04700364173595629,0.0009162938732757383
3.19,0.2635645886339688,0.009730351058223619,-0.017163588665880525,-0.0025916487733328606,0.04652593025461568,0.0009036718950267824
3.2,0.2590224825205212,0.010019016416507043,-0.012960496817981948,-0.002450293545290872,0.04603939196544516,0.0008912327016203048
3.21,0.25450575523500163,0.01029261635920875,-0.009444586552831424,-0.0023364627844577146,0.04543559539517342,0.0008790650225345239
3.22,0.24943023958723387,0.010526660467746751,-0.029551670515104433,-0.0021933639606804547,0.044987170830168594,0.0008669104565438075
3.23,0.2450875583104306,0.010775173970856144,-0.02304414149278955,-0.0020631506908623974,0.04449177942195832,0.0008549831970640097
3.24,0.24076643416304222,0.011011419296380609,-0.017826569553847094,-0.0019353260767670775,0.043999916381703585,0.0008432017813703081
3.25,0.23646177892633347,0.011232818311057713,-0.013555331328518605,-0.0018120383428418003,0.04350127674676642,0.0008315906126894449
3.26,0.232185412096797,0.011440840479437497,-0.009982113660100822,-0.0017157034522815766,0.04289818981823282,0.0008202276330552857
3.27,0.2273963543464319,0.011608013830155528,-0.030400014949805154,-0.0015900731507860703,0.04243621099947231,0.0008088853258489678
3.28,0.22329077312477352,0.011794944665410867,-0.02378851181816799,-0.0014769032516340022,0.041933074429431616,0.0007977520524189288
3.29,0.21920927927965295,0.011971087081619203,-0.018487021691271366,-0.0013657991654166307,0.041434254929060124,0.0007867559933931108
3.3,0.2151474841793899,0.012133924283119768,-0.014146601579057005,-0.0012588919799864922,0.040930458918096234,0.0007759185005749978
3.31,0.21111613759394743,0.012284928567751763,-0.010515016164447388,-0.0011783145721475574,0.04033403028649333,0.0007653079924208529
3.32,0.20661605824479068,0.012394282196126483,-0.031242181144364167,-0.001068536334363784,0.03986532512521087,0.0007547242425961245
3.33,0.20275103230549263,0.012527769923664778,-0.0245257088948847,-0.0009707862408722575,0.03936076072878001,0.0007443328085461955
3.34,0.19891197722721188,0.01265182128840081,-0.019139282052549333,-0.0008748040485799282,0.03886113919609671,0.0007340703912767894
3.35,0.19509513445203908,0.012763981027674731,-0.014728638753069845,-0.0007826969460519624,0.03835810870376404,0.000723955658804327
3.36,0.1913102464712324,0.01286571551517568,-0.011037633456112417,-0.000716258342339348,0.037773296735296995,0.0007140486123230013
3.37,0.18709837646291305,0.012925431427390777,-0.032072547533346096,-0.0006208166925867966,0.03730369879965241,0.0007041731683465666
3.38,0.18347436520738114,0.013012833939285429,-0.025250140822663525,-0.0005369688068965821,0.03680305318911771,0.0006944747295886372
3.39,0.17987764609372903,0.013092032107309137,-0.019777800055464922,-0.000454614903675993,0.03630783032165743,0.000684897534768464
3.4,0.17630502497478773,0.0131606318465316,-0.015295945168247727,-0.00037583271594845855,0.035810552044696665,0.0006754578886319551
3.41,0.17276529961307574,0.013220086048093549,-0.011544531410834225,-0.00032203131845904605,0.03524141776753839,0.0006662083455952013
3.42,0.1688380947140189,0.013237534215448932,-0.03288576969850965,-0.00023951069312239814,0.034775853298583764,0.0006569942030146433
3.43,0.16545302699455533,0.013285480058300436,-0.025956540952165597,-0.00016815164875684887,0.03428359136257513,0.0006479430314300341
3.44,0.16209608821426968,0.01332634131934185,-0.02039739484871461,-9.8035616459965e-05,0.03379710296633266,0.000639005745559047
3.45,0.15876458680175176,0.013357783972267612,-0.015843434475470985,-3.120641358695785e-05,0.03330971737345576,0.0006301965668991848
3.46,0.1554664378256021,0.01338124101302185,-0.012030725002887266,1.134570994636276e-05,0.032759517051124454,0.0006215614562514623
3.47,0.1518180464721297,0.013363035353819441,-0.033676986852526625,8.226286382860818e-05,0.0323020920167335,0.0006129646628254984
3.48,0.14866774291633078,0.013377475100995184,-0.02664015841702394,0.00014244471403186,0.03182188506910232,0.0006045179655782579
3.49,0.1455459913257684,0.01338584521448638,-0.020993431029125986,0.00020161269642718891,0.03134768954581661,0.0005961781979458216
3.5,0.14245054469341767,0.01338587020782711,-0.016366592276995107,0.0002580559756121732,0.0319377997847859,0.0005882700396315543
3.51,0.13938825206061267,0.013378934360375183,-0.012508998068483379,0.00029026215807246365,0.030073814696147245,0.0005797911419058078
3.52,0.13601119424055952,0.013331012045370016,-0.03444101004390632,0.0003508838400173606,0.0299445904349017,0.0005719126905032496
3.53,0.13298563483754577,0.013317300506798802,-0.02729466729078922,0.0004010816854022299,0.029402769859230685,0.0005639818001542851
3.54,0.13011927931128042,0.01329839606434291,-0.021560279641619218,0.00045049852542037216,0.028960945583610013,0.0005562161542620273
3.55,0.12724871548464023,0.013272130692243422,-0.01686001194656228,0.0004980956108870439,0.031757175914762736,0.0005494865441378636
3.56,0.12441821724440416,0.013239811824661274,-0.012965593612079829,0.0005206657546560622,0.027162796060603372,0.0005406964776292932
3.57,0.12130482891503647,0.013167448162931805,-0.03517347771264667,0.0005722292003022225,0.027700280798538576,0.0005336455160555228
3.58,0.11828787817691477,0.013130365257296717,-0.0279162597749405,0.0006135361786780147,0.027017390006849867,0.0005261419633751595
3.59,0.11569919774245818,0.013088828287877163,-0.022094185680998635,0.0006544114461305763,0.02697268486312096,0.0005190290022950381
3.6,0.1130425726847406,0.013040827706589653,-0.01732447888258548,0.000694224825152835,0.031705831344913483,0.0005133243359739485
3.61,0.11044095391987696,0.012987608970504994,-0.01337793456457348,0.0007081180438778517,0.024276203699489202,0.0005042064318527605
3.62,0.10755065953382825,0.012895464465145778,-0.03587163227791734,0.0007516921561951461,0.02550636562911071,0.0004979421881556807
3.63,0.10453001731303146,0.012839224563521157,-0.028503772213639422,0.0007851289734389644,0.024677306033666854,0.0004908318632845198
3.64,0.10221685406097691,0.012779177360755511,-0.022593592667874418,0.0008191725716095458,0.02719356691050077,0.00048493496330492494
3.65,0.09976923309729102,0.01271345412057201,-0.01777389719848088,0.000851422736913601,0.03131040281952499,0.0004794221551853692
3.66,0.09739254843488254,0.012643325781880321,-0.013743463362914099,0.0008576805898908095,0.021490974375898322,0.00047021544752701025
3.67,0.09450792556098264,0.012535572873062506,-0.036531869831435415,0.0008942079936623033,0.023306558629772926,0.0004646120209524598
3.68,0.09151744438273823,0.012463884093705246,-0.029054311490028795,0.0009207854929430894,0.02256059484297211,0.0004579483660274068
3.69,0.08947000575076913,0.01238896592425931,-0.023057746751931063,0.0009489514789136268,0.027526870937517003,0.00045314626464344916
3.7,0.08723226303963827,0.012309097803253621,-0.01817454208463687,0.0009745303512500256,0.031048987870608905,0.00044781231438751425
3.71,0.08505865170427285,0.012225541290433739,-0.014061225286354784,0.0009739343196577829,0.018681098584518344,0.0004384948416434131
3.72,0.08216770037705601,0.01210578467691903,-0.03715584576013953,0.0010043166093546617,0.021119787881070218,0.00043351829108117444
3.73,0.07919449179105698,0.01202192229321497,-0.029568766102272548,0.001025774823028043,0.023035837996573542,0.0004279457006321469
3.74,0.07741519517878714,0.011935306485355568,-0.023503432480254105,0.0010478985710706023,0.027352282976927465,0.00042328500883015
3.75,0.07538643183924165,0.011844454430587348,-0.01852637431909443,0.0010678597795990845,0.031011162365088055,0.00041840944737261883
3.76,0.07316202749851897,0.011750604418381272,-0.01432961600045246,0.0010610541325224323,0.015772668894267504,0.00040887484438330334
3.77,0.07031400754531347,0.011621969528974319,-0.03774262971489861,0.0010863387700675439,0.01951112233167101,0.00040467483176998654
3.78,0.06733625182331338,0.011528798546933672,-0.030050643822221446,0.001103297646413972,0.02345419565471424,0.0003999244823428951
3.79,0.06583492432987725,0.011433296052132391,-0.023900041945523753,0.0011201758163577723,0.027266432678186597,0.000395451807519954
3.8,0.06395850376428314,0.01133420290067022,-0.018830104124845093,0.0011352577039622292,0.03102216852728399,0.0003909749682666775
3.81,0.06168883405877068,0.011232714625108997,-0.014551785660898986,0.0011228679162095054,0.013859159438523724,0.00038124719350136145
3.82,0.05887473311538827,0.011097932093306895,-0.03829441947544865,0.0011447006452220921,0.020200995442429384,0.00037835884484703594
3.83,0.0558876519818341,0.010997934030143597,-0.030507584156680423,0.0011568370955415668,0.023477319388468466,0.0003735973183511784
3.84,0.05456707140361061,0.010896070490318266,-0.024249045686985937,0.0011693985658307775,0.027402070149073685,0.00036955966089795376
3.85,0.05261785435806132,0.01079117873281632,-0.019086518712185807,0.0011802204726714483,0.03108502407567702,0.00036535716187510075
3.86,0.0503414585750761,0.010684345888023472,-0.014728774395678101,0.0011633646124890363,0.013922014891675515,0.0003558416108097565
3.87,0.04753998874562626,0.01054577039028004,-0.03881962630458702,0.0011818378179680328,0.02053835904993824,0.0003537003196950473
3.88,0.04453844650420535,0.010441126958582458,-0.030918436877414024,0.001189916503717661,0.0236738638628168,0.00034908628483549907
3.89,0.04320499541243805,0.010335093314495225,-0.0245525441044947,0.001198754358844359,0.02755969302847035,0.00034539236326625874
3.9,0.04121721447702953,0.010226429729698339,-0.01929956813029321,0.0012059328943471801,0.031182209812045027,0.00034145975074839754
3.91,0.03891687286206036,0.010116245396929457,-0.014864041553153129,0.0011858085020066292,0.014019200481859468,0.0003325406700951415
3.92,0.03612683271647654,0.009975894288416498,-0.03931357280606562,0.0012007562604873527,0.020608043410021537,0.0003305713349148473
3.93,0.03310716297555416,0.009868470183249656,-0.03128710321931294,0.0012055299935338742,0.023685641218799652,0.0003262653588116127
3.94,0.031757164480339384,0.009760009085368893,-0.02481562230371992,0.0012111629180902488,0.027523185864494093,0.00032282691498255176
3.95,0.02975675399419231,0.009649315684256976,-0.019474024632870623,0.0012152570445577047,0.031097333936706384,0.00031916106980476623
3.96,0.027450337807266578,0.009537457765773638,-0.014962393173334476,0.0011923965364920668,0.013934324426543413,0.00031081008905785393
3.97,0.0246916284840637,0.009397039653080697,-0.03976884517697954,0.0012043478419139653,0.020510984884836943,0.00030899000744967763
3.98,0.02167129986574423,0.009288396016771117,-0.031618817537548694,0.0012063313099014547,0.023535553579363593,0.00030496889509519786
3.99,0.020322307765496817,0.009179024420546966,-0.0250433759418911,0.0012092625011888131,0.027331748290308946,0.0003017635509690816
4.0,0.018325377864059078,0.009067771227222465,-0.019614700477177394,0.0012107637026081033,0.030863570780840874,0.0002983425276755903
4.01,0.016028561491410187,0.008955662549325893,-0.015028430766506062,0.0011856421591918533,0.013700561070188029,0.0002905371473193576
4.02,0.013317028093595695,0.008816611707374022,-0.04018975150898996,0.0011950708292572437,0.02027794729192001,0.0002888450595600649
4.03,0.010310339977337435,0.008708066485674237,-0.03191772091071243,0.0011947239153625156,0.023253170733001243,0.0002850883489809304
4.04,0.008976721002085242,0.008599062213399122,-0.02523980324298236,0.0011954026252741009,0.027013575679976903,0.00028209594408562614
4.05,0.006996418751015199,0.008488484457558343,-0.019725457818253744,0.0011947491988816214,0.03050788618592066,0.0002789001015767551
4.06,0.004722021538228205,0.008377317675112295,-0.01506588521493768,0.0011677866572562849,0.013344876264496267,0.0002716167900590612
4.07,0.002070557920674787,0.008240823725635948,-0.04057983407079746,0.0011751158482085381,0.01993348195725032,0.0002700347992791806
4.08,-0.0009107612708447732,0.008133477642502385,-0.032187241636449926,0.001172847629334079,0.022862309879960335,0.00026652372639917227
4.09,-0.0022172264735331737,0.00802590531367997,-0.025408230719392577,0.0011716732844368968,0.026591428185272117,0.0002637262919982058
4.1,-0.004170114236146105,0.00791702899682889,-0.01980952216484866,0.001169254421409331,0.03005213235781642,0.0002607379399377534
4.11,-0.006411568902464637,0.007807791817526777,-0.015077881236891244,0.001140820441866045,0.012889122223061312,0.00025395249279123566
4.12,-0.008992465385659898,0.007674826822956504,-0.040942084176265325,0.0011464265092759134,0.019497625901466493,0.0002524655904858034
4.13,-0.01193876528304827,0.00756958754344339,-0.03243027855148739,0.0011425992790897784,0.02238245643238137,0.00024918291935202954
4.14,-0.013208387432683821,0.007464322457906292,-0.025551474216456427,0.0011399254470165498,0.026083993625815018,0.00024656441565225015
4.15,-0.015124996552984271,0.007357987956702061,-0.01986962558930827,0.0011360851897016084,0.029514309553428344,0.00024376759319745964
4.16,-0.01732486071048811,0.007251486460191359,-0.015067066776452975,0.0011065032293019576,0.012351299208491661,0.00023745542765145358
4.17,-0.019826671513456517,0.0071228299347581014,-0.041279056155474336,0.001110719461631771,0.018986993240161672,0.000236051089469423
4.18,-0.022730009439086984,0.007020434327209557,-0.03264930732882476,0.0011056526001066598,0.021829802687522794,0.000232980963893883
4.19,-0.023954818377802667,0.00691818439424452,-0.02567193813973745,0.0011017908001504826,0.025506852171588386,0.00023052705324172528
4.2,-0.02582787628213623,0.006815068172016936,-0.01990810048368985,0.0010968318361674913,0.028909468082406842,0.00022790733688213163
4.21,-0.027979058083715813,0.006711948206117313,-0.015035702105592463,0.0010663834061327136,0.011746457534539723,0.0002220437522233391
4.22,-0.03039492305845215,0.006588210088587232,-0.04159294903161026,0.0010695036041732712,0.018415556530214556,0.00022071158419182196
4.23,-0.03324878084853822,0.006489244617213785,-0.03284645835321953,0.0010634772707962563,0.021217992651609594,0.00021783939862930098
4.24,-0.034422241226295114,0.006390570495007353,-0.025771690701503758,0.0010587006076218928,0.024873169289793263,0.00021553724705933753
4.25,-0.036245811712021236,0.006291204956987428,-0.019926952390392216,0.001052887881884031,0.0282503573771669,0.00021308158232664497
4.26,-0.03834252883194722,0.0061919716687341975,-0.014985730096839234,0.0010218164744502933,0.011087346636451789,0.00020764198599094931
4.27,-0.04066699558435971,0.006073613425527924,-0.041885671251407075,0.001024098360044129,0.017795211238512666,0.00020637341430712082
4.28,-0.043466059445052,0.005978532748862619,-0.033023579639746004,0.0010173569966624289,0.02055866088774543,0.00020368569991743656
4.29,-0.044582849385577106,0.0058838661853855,-0.025852525062930454,0.0010119036042321396,0.02419419818268173,0.0002015238024136803
4.3,-0.04635213244341685,0.0057886577797816585,-0.01992791904825708,0.0010054677374183602,0.027547897612493703,0.00019922035539236954
4.31,-0.04838971791265578,0.005693693476693795,-0.014918833706190071,0.0009739825148400086,0.010384886690848649,0.00019418045616564328
4.32,-0.050618541953539875,0.005581047246572268,-0.042158893940325015,0.0009756509586842627,0.01713618784720275,0.00019296845506918577
4.33,-0.05335852797827556,0.005490191181678483,-0.033182288490252176,0.0009684065939429818,0.01986182658824063,0.000190452778148825
4.34,-0.05441436345954287,0.00539985171243984,-0.025916009533943907,0.0009624828823894673,0.0234796482158964,0.0001884208041538013
4.35,-0.05612553522382768,0.005309097379502248,-0.019912519739762047,0.0009556233896778425,0.0268115264076911,0.0001862588297972072
4.36,-0.05810028167907433,0.0052186776811069535,-0.014836483472890905,0.0009239026330757885,0.009648515318098287,0.00018159480023630833
4.37,-0.060230263878580104,0.005111963758963611,-0.042414094778564504,0.0009251526960550471,0.01644735651426532,0.00018043365347799947
4.38,-0.06290777695205918,0.005025572606953688,-0.03332401430355958,0.0009175880478013419,0.019136185490081788,0.00017807852426060365
4.39,-0.06389927005301388,0.0049397826407115986,-0.02596352931760748,0.0009113717501722622,0.022737958692726688,0.00017616718076811851
4.4,-0.06554935221281255,0.004853684729688723,-0.01988209540115804,0.000904260058007681,0.026049457213000976,0.00017413690575002823
4.41,-0.0674583845849952,0.004767993213583566,-0.014739977061140053,0.0008724543775052246,0.008886445968917245,0.00016982551632404658
4.42,-0.06948723636490683,0.0046673358200521875,-0.04265259434532709,0.0008734541635427684,0.015736455604988354,0.00016871060846317088
4.43,-0.07209965418475406,0.0045855642349934556,-0.0334500338539101,0.0008657255389299043,0.018389329351719216,0.00016650539883014649
4.44,-0.07302419619215073,0.004504462727261682,-0.02599632086486281,0.0008593685579238585,0.021976505426271598,0.00016470630894600423
4.45,-0.07461094772232002,0.004423142381249079,-0.019837842337722122,0.0008521508196180913,0.025268874919776797,0.00016279882727064028
4.46,-0.0764521172413879,0.004342283776992417,-0.014630471660836974,0.0008203861300434084,0.00810586353469097,0.00015881755488409669
4.47,-0.0783783467905863,0.004247725300388083,-0.042875586139246025,0.0008212794511892764,0.015010265961949817,0.00015774518917309737
4.48,-0.0809237226917503,0.004170654759327874,-0.03356150031663674,0.0008135194467903197,0.017627913748843337,0.00015568005817576547
4.49,-0.08177938625841819,0.004094309460356271,-0.026015500189657814,0.0008071505040563511,0.02120175929260628,0.00015398565341061168
4.5,-0.0833012119461074,0.004017818713286658,-0.01978083979281564,0.0007999502173410864,0.02447608654843746,0.0001521928333421318
4.51,-0.08507300648830096,0.003941830755138653,-0.014509010775043407,0.0007683304859129274,0.007313075035545465,0.00014851994691625055
4.52,-0.0868958212585369,0.0038533445056998517,-0.043084160736839294,0.0007692393424904108,0.014274746215377887,0.00014748718692892638
4.53,-0.08937280152387928,0.0037809944952726937,-0.03365946696476385,0.0007615593487084997,0.016857788719280536,0.00014555301326303589
4.54,-0.09015825729541405,0.0037094129501369366,-0.026022086068167027,0.0007552864411681163,0.02041941020027268,0.0001439564380904442
4.55,-0.09161412952707337,0.0036377455270297787,-0.019712072187871854,0.0007482068726025426,0.023676639525236895,0.0001422708391988728
4.56,-0.09331559651215571,0.003566609536598264,-0.014376546033645354,0.0007168166466179395,0.006513627897210571,0.00013888546490894017
4.57,-0.09503481844141959,0.0034841111951067205,-0.04327932582981475,0.0007178435268813988,0.013535139869614923,0.0001378899973803582
4.58,-0.09744257098986964,0.0034164491991006685,-0.03374490656682383,0.0007103360424545563,0.016084102455656467,0.00013607831811413725
4.59,-0.09815701577764457,0.0033495885443102225,-0.026017018406321313,0.0007042487115367272,0.0196344659128446,0.00013457334552260624
4.6,-0.09954640645126744,0.003282689493566693,-0.019632447596507063,0.0006973751340248246,0.022875416341194048,0.00013298814481154652
4.61,-0.10117708595380748,0.003216339843348237,-0.014233954672704385,0.0006662818577343408,0.0057124046100240425,0.00012987031344397127
4.62,-0.1027930768771057,0.003139697613008252,-0.04346202178595604,0.0006675118627328906,0.012796061722878392,0.00012891033004426388
4.63,-0.10513122902899852,0.0030766480030308685,-0.03381872655694451,0.0006602526262643671,0.015311385228820017,0.00012721328501018748
4.64,-0.10577432298930489,0.0030144237062046386,-0.026001173516476683,0.0006544240470270456,0.018851332376734493,0.0001257942419249519
4.65,-0.10709714396206493,0.0029521979483249083,-0.01954281191984819,0.0006478257977079285,0.022076711796936363,0.00012430316813088615
4.66,-0.10865700978079929,0.002890530428345528,-0.01408205374531235,0.0006170819283901568,0.004913699973832817,0.00012143384685758354
4.67,-0.11017060526086198,0.002819574071999398,-0.04363313433231042,0.0006185847286723282,0.01206156896219102,0.00012050794283623448
4.68,-0.11243918889292104,0.002761025963415875,-0.03388178114960283,0.0006116346749528624,0.01454361862280985,0.00011891822417239917
4.69,-0.1130110001135165,0.0027033195459935655,-0.025975375770315168,0.0006061235728504241,0.018073880264650618,0.00011757992573879838
4.7,-0.11426755039067871,0.0026456394497387237,-0.019443960326270826,0.0005998559393597579,0.02128429723085189,0.0001161772009874069
4.71,-0.1157569578857931,0.002588518674961904,-0.013921610921840966,0.0005695008731571657,0.004121285326189921,0.00011353831167411216
4.72,-0.11716940804262777,0.0025230474731685604,-0.04379350418304284,0.0005713325046335974,0.011335220729017232,0.00011264539949804516
4.73,-0.11936881078256079,0.0024688616884205317,-0.03393488078984319,0.0005647395541137567,0.013784293694377494,0.00011115620588014327
4.74,-0.11986976613975742,0.0024155274935822035,-0.025940406516156145,0.0005595919577281167,0.017305501088828872,0.00010989389769503978
4.75,-0.12106068476569476,0.0023622395595168655,-0.019336646204237695,0.0005536979013343007,0.020501474865762936,0.00010857418577712848
4.76,-0.12248032423833877,0.002309505475750484,-0.013753353087508913,0.0005237597197312717,0.0033384628890621194,0.00010614861175645513
4.77,-0.12379324049405227,0.002249295212308766,-0.04394393435802613,0.0005259642264978914,0.010620128869605772,0.00010528784803240954
4.78,-0.12592416217316327,0.0021993103516138035,-0.033978799081069155,0.0005197649166531366,0.01303646064318292,0.00010389284317897628
4.79,-0.12635500321600546,0.002150181566129561,-0.02589701107780229,0.0005150157550634436,0.016549155288758825,0.00010270215063786382
4.8,-0.1274812270679604,0.0021011122131042725,-0.019221587628237558,0.0005095274795043033,0.01973112452534695,0.00010146051123229236
4.81,-0.12883208198033458,0.0020525858301922995,-0.01357797266621219,0.0004800245274696743,0.002568112485276261,9.923209428930175e-05
4.82,-0.13004738895538992,0.0019973948761631277,-0.044085195440857206,0.0004826354597010071,0.00991900182576083,9.840281841291732e-05
4.83,-0.13211080235997485,0.0019514326599079368,-0.03401427811411395,0.0004768564272574329,0.012302771858504763,9.709609348055651e-05
4.84,-0.13247254577741785,0.001906326478895437,-0.02584590369281159,0.00047253098093050016,0.015807414031783765,9.597297747950734e-05
4.85,-0.13353527153370237,0.001861287186599725,-0.019099472083894398,0.0004674713559395943,0.0189757443507401,9.480482570751947e-05
4.86,-0.13481858075259368,0.0018167754944897752,-0.013396132381160442,0.00043841366273866925,0.0018127322551414124,9.275835484915621e-05
4.87,-0.13593847263848602,0.0017663501150622096,-0.04421802934473362,0.0004414554379317269,0.009234183088436059,9.196003796337269e-05
4.88,-0.13793558824914953,0.0017242200067713043,-0.03404203191337274,0.0004361147610067042,0.011585519701469378,9.0736077477604e-05
4.89,-0.13822949006758734,0.0016829421678465906,-0.025787770958629608,0.0004322299751534237,0.015082495995681074,8.967679577426263e-05
4.9,-0.13923013984395993,0.0016417338466467868,-0.018970960127262515,0.000427613823711097,0.018237486710208473,8.85778665208141e-05
4.91,-0.1404473635613357,0.0016010341408190243,-0.013208468239156446,0.00039900437726386035,0.001074474566133115,8.669905993370634e-05
4.92,-0.14147426454336198,0.0015551130561064497,-0.04434315201251593,0.0004024935131663521,0.008567685260026887,8.593126290954545e-05
4.93,-0.14340649846289466,0.001516616232599688,-0.03406274885264793,0.00039760192234923787,0.010886670023743864,8.478491390293297e-05
4.94,-0.14363402176975626,0.0014789649060986676,-0.025723274212907654,0.0003941675916641913,0.014376300070479417,8.378598750069576e-05
4.95,-0.14457421197100473,0.0014413817117642225,-0.01883668730329191,0.00039000284993892184,0.017518190185074247,8.275230398588752e-05
4.96,-0.14572700077764011,0.0014042852702900177,-0.013015591662224324,0.00036183873536549296,0.00035517799882832726,8.102778543098862e-05
4.97,-0.1466635290015006,0.0013626035322289454,-0.04446125451806893,0.0003657849628782098,0.007921220504058232,8.029012470505587e-05
4.98,-0.14853247400026248,0.001327536338635582,-0.03407709307623463,0.00036134693016255507,0.010207892169397414,7.921656875864327e-05
4.99,-0.14869525959859686,0.0012933054538422084,-0.025653050812479705,0.00035836676372855223,0.01369043468083744,7.827475273412793e-05
5.0,-0.14957677263893743,0.001259138016074246,-0.018697265495859483,0.00035465552253335724,0.016819408294641694,7.730259886215678e-05
5.01,-0.15066693948462273,0.0012254332415473357,-0.012818090944222149,0.0003269289352187693,-0.0003436039281632386,7.571986961014294e-05
5.02,-0.1515158742559919,0.0011877255778891538,-0.044573003918912946,0.00033133619943918685,0.007296227970409907,7.501198982684861e-05
5.03,-0.15332327348183128,0.001155882387582352,-0.03408570513840914,0.000327350913722949,0.009550586025090485,7.400671773376158e-05
5.04,-0.15342311323607305,0.0011248644815609055,-0.02557771463074232,0.0003248234886728761,0.013026244261604666,7.311897598029363e-05
5.05,-0.1542478718796758,0.0010939026551248787,-0.018553283460676084,0.00032156292503927105,0.01614243546500783,7.220487203492932e-05
5.06,-0.15527736660914115,0.0010633777325352867,-0.012616531499531902,0.0002942620681809607,-0.0010205767893856632,7.075227931346486e-05
5.07,-0.15604161853310927,0.001029381293538023,-0.044679043398332396,0.00029912942557009,0.0066938986471514,7.007383182568878e-05
5.08,-0.15778934153054536,0.0010005570016957677,-0.034089201825793225,0.00029559166318828136,0.008915906553073746,6.91326206179471e-05
5.09,-0.15782815426135244,0.0009725455751841139,-0.025497856235290328,0.0002935112754564836,0.01238483329750716,6.829610402701922e-05
5.1,-0.15859819828101251,0.0009445807291896813,-0.0184053070029222,0.0002906944826632651,0.01548833063260979,6.74367853222035e-05
5.11,-0.15956908439918038,0.0009170258752355664,-0.01241145600516802,0.0002638043588484939,-0.0016746816489886813,6.610348812465536e-05
5.12,-0.16025166825528459,0.0008864825296051038,-0.044779991625887305,0.0002691267782624488,0.006115197990810773,6.545411450500438e-05
5.13,-0.1619416893117176,0.0008604745804774439,-0.03408817622840843,0.0002660276767207208,0.00830478614668987,6.457300660580096e-05
5.14,-0.16192149870697392,0.0008352660851862481,-0.025414042532645453,0.0002643850969214542,0.011767088249474193,6.378503425494992e-05
5.15,-0.1626389637188197,0.0008100930259935524,-0.018253878515395172,0.00026200182099912544,0.014857938790312473,6.297743238595009e-05
5.16,-0.1635533974031489,0.0007853022943038468,-0.01220338400997889,0.00023550492690908254,-0.0023050735146407236,6.175336538081648e-05
5.17,-0.1641574073918406,0.0007579605387775246,-0.04487644250872336,0.00024127400196206954,0.005560886614204424,6.113268518716876e-05
5.18,-0.16579178579334553,0.0007345705932415569,-0.034083196602807675,0.00023860174470182453,0.0077179550785509135,6.030796947107701e-05
5.19,-0.1657147004774373,0.0007119660505594538,-0.025326816270876407,0.00023738488683553813,0.011173697625103014,5.9566012429926864e-05
5.2,-0.16638179864969516,0.0006893845827526945,-0.01809951641007501,0.00023542217722530805,0.014251910722641464,5.8807238805546614e-05
5.21,-0.1672420095744087,0.0006671573782313089,-0.01199281150832121,0.00020929911009038253,-0.002911101602297732,5.7683074985743184e-05
5.22,-0.16777059694383922,0.0006427738186154386,-0.044968964090230656,0.00021550369000206292,0.005031539257129732,5.709067710917608e-05
5.23,-0.16935145902507998,0.000621809126410966,-0.034074806123385315,0.00021324410966940297,0.007155960260019205,5.631887167236314e-05
5.24,-0.1692196544578195,0.0006016154441290666,-0.02523669497378478,0.00021243861999997466,0.010605170402409589,5.562053907916306e-05
5.25,-0.16983865702258072,0.0005814316028640576,-0.01794271465627162,0.00021088140167747137,0.013670721131150858,5.4907870448016964e-05
5.26,-0.1706469310391867,0.0005615738851716401,-0.011780210265044389,0.0001851113856225822,-0.003492291210837828,5.387498306907277e-05
5.27,-0.1711032837015125,0.0005399144242801412,-0.045058097768446714,0.0001917381313774376,0.004527562224869306,5.331042007009172e-05
5.28,-0.17263280663648572,0.0005211888964851141,-0.03406352178103589,0.00018987523868850477,0.006619182491865743,5.2588256531019956e-05
5.29,-0.17244850860187455,0.0005032198902021889,-0.025144170656687947,0.00018946501176146492,0.01006185297956469,5.193128362949731e-05
5.3,-0.1730217300277559,0.00048524694928886447,-0.017783941679283544,0.0001882965857522455,0.013114685316407358,5.1262149343847596e-05
5.31,-0.1737803933998805,0.0004675721454461268,-0.011566027140474944,0.00016285792567883735,-0.004048327040080185,5.031257361905818e-05
5.32,-0.17416771759037886,0.00044841287349939307,-0.04514435751445944,0.0001698917979691371,0.0040492094487656095,4.977535852946661e-05
5.33,-0.17564811463977037,0.00043174791963807024,-0.034049833566029974,0.00016840824287435156,0.006107852356478586,4.909976769790522e-05
5.34,-0.17541358437789256,0.00041582510990068045,-0.025049708760604972,0.00016837587125434963,0.00954394479547015,4.8482005559134066e-05
5.35,-0.17594336799930943,0.0003998843034480615,-0.01762364007618089,0.00016757835007784918,0.012583974556662368,4.78539763478562e-05
5.36,-0.17665477315631506,0.000384214029480745,-0.011350683237765224,0.00014244882023401316,-0.004505775729011079,4.698037129591782e-05
5.37,-0.17697627681556583,0.00036734186803499824,-0.045228229197391556,0.00014987347940788169,0.003589385907755061,4.646997642883972e-05
5.38,-0.17840978403071972,0.0003525670089210564,-0.03403420382852573,0.00014875093604608237,0.005632666248590934,4.5838100556528847e-05
5.39,-0.17813447346526345,0.0003385271241107546,-0.024953878110522965,0.0001490781201963818,0.009056630535972408,4.525749784271573e-05
5.4,-0.17862247791100572,0.00032444752884330796,-0.017462338206541972,0.00014863280998235131,0.012083919931195869,4.466828418656252e-05
5.41,-0.17929003368166718,0.000310613090803713,-0.011134701942694392,0.0001237899976339622,-0.00489600629855556,4.3863891353139786e-05
5.42,-0.17954938512865226,0.000295826680929423,-0.04531030217691523,0.00013158822786447875,0.0031551136156288597,4.3379753594512015e-05
5.43,-0.1809387757578662,0.00028278049013508166,-0.03401720626072802,0.00013080777684045783,0.005191267468337747,4.2788890285587396e-05
5.44,-0.18062908128335664,0.0002704660295727024,-0.024857173919201614,0.0001314756439723387,0.008599575561115761,4.224350518086878e-05
5.45,-0.18107766210029297,0.00025808625236933835,-0.017300521193419627,0.0001313633747209154,0.0116135135607412,4.1690935638517925e-05
5.46,-0.18170455494015414,0.0002459277514965663,-0.010918543829063765,0.00010678495460387094,-0.005257103029784214,4.094954448746298e-05
5.47,-0.18190534688322657,0.00023303719176581694,-0.0453910917030953,0.00011493897594494517,0.002748870154188718,4.0491062688125465e-05
5.48,-0.18325331005542012,0.00022156696921626917,-0.03399933266479138,0.00011448139168832783,0.0047770166855688155,3.9938659020824216e-05
5.49,-0.18291191344665947,0.00021082576129316521,-0.02475999689721675,0.00011547077609389834,0.008168813520178864,3.942664750960322e-05
5.5,-0.18332367592854837,0.00019999374267776204,-0.01713857578522493,0.00011567216917557834,0.01116861352567597,3.890866104423557e-05
5.51,-0.18391244812399066,0.00018935985002244138,-0.010702566051179474,9.133612626955224e-05,-0.005592737470270654,3.822457364564988e-05
5.52,-0.1840578557832373,0.00017818643560651992,-0.04547100111551572,9.982784395998095e-05,0.0023672597872299497,3.7791109307008355e-05
5.53,-0.18536668544122392,0.0001681480532589319,-0.03398095977047433,9.967382658588429e-05,0.004386808937463553,3.727476524778644e-05
5.54,-0.18499591700305018,0.00015883662718430003,-0.024662696453958688,0.00010096551261341324,0.007761497567116684,3.679436885730635e-05
5.55,-0.18537314026012552,0.0001494091539377962,-0.01697682673551526,0.00010146120588629102,0.010746611931515545,3.630901160763857e-05
5.56,-0.18592603513667427,0.00014015750560147922,-0.010487070625231354,7.734602084861897e-05,-0.0059052942696851025,3.567700811502163e-05
5.57,-0.18601893015279813,0.00013053381597849523,-0.045550377656411456,8.615725244016077e-05,0.0020080955081263584,3.5267889301251094e-05
5.58,-0.18729067364553487,0.00012179187991456786,-0.03396241151421009,8.62876336115835e-05,0.004018640092794735,3.478534864072456e-05
5.59,-0.18689263710847115,0.0001137755767377513,-0.024565572296353366,8.786255594656577e-05,0.007375790599617176,3.433488996006587e-05
5.6,-0.1872373916800285,0.00010561839625111702,-0.016815552115190258,8.863339541785509e-05,0.010345824534943576,3.388030934160996e-05
5.61,-0.18775646092983322,9.761565555876928e-05,-0.010272315442705349,6.471819475372705e-05,-0.006196313318466751,3.329561540052566e-05
5.62,-0.18779951257208438,8.938549234116522e-05,-0.04562952341302662,7.383086279000955e-05,0.0016699620834700838,3.291014068276627e-05
5.63,-0.18903606020970187,8.181336386137161e-05,-0.03394396944855771,7.422677778922913e-05,0.003671210522288189,3.2459282611318545e-05
5.64,-0.18861271483316955,7.496634757409026e-05,-0.02446888398566216,7.606618869040472e-05,0.007010497971172473,3.203716122582955e-05
5.65,-0.1889269378274605,6.79541167780684e-05,-0.016654992123221746,7.709338782851852e-05,0.00996515234860834,3.161160050563197e-05
5.66,-0.18941411026318633,6.107591654647138e-05,-0.01005852247715211,5.335806327998401e-05,-0.0064668018905474165,3.106985566799724e-05
5.67,-0.1894098495203167,5.409413028623078e-05,-0.04570870380860015,6.275435656218809e-05,0.0013519282810088452,3.0707298381131004e-05
5.68,-0.19061299137312915,4.7573835981751245e-05,-0.033925879812102266,6.33973859961992e-05,0.0033436598416729125,3.0286129549937656e-05
5.69,-0.19016620380618576,4.1778968062899935e-05,-0.02437285804290923,6.548299278971641e-05,0.0066648230588356285,2.9890818392395674e-05
5.7,-0.1904517461692734,3.579512908302718e-05,-0.016495355374956944,6.674826279855504e-05,0.009603856462704043,2.9492611684670287e-05
5.71,-0.19090887059647343,2.9925915079331844e-05,-0.009845883752745976,4.3173563485969e-05,-0.006717442028135942,2.8989839043635947e-05
5.72,-0.19085972954080432,2.4058127712223154e-05,-0.04578815254063784,5.283607008268689e-05,0.001053355945007905,2.864945171057753e-05
5.73,-0.1920311904957117,1.8480179608815206e-05,-0.03390835921379676,5.370835444264741e-05,0.003035391201336006,2.8256098767394188e-05
5.74,-0.1915627665827202,1.3628832506995536e-05,-0.024277692460827893,5.60224304506122e-05,0.006338205617034982,2.7886140829166813e-05
5.75,-0.19182142168006067,8.565395637205597e-06,-0.01633682341406484,5.750808465962262e-05,0.009261409398034466,2.751370847251397e-05
5.76,-0.1922502927254044,3.598189524112172e-06,-0.00963456550095998,3.407568529158942e-05,-0.006948727197668559,2.704628565643412e-05
5.77,-0.19215862754329294,-1.2795548176569582e-06,-0.04586807619944011,4.398750030883346e-05,0.0007737744515904478,2.672730446083981e-05
5.78,-0.19330008807827426,-6.016401243869041e-06,-0.033891597865931544,4.5071830440435137e-05,0.00274595600154416,2.6360007039420318e-05
5.79,-0.19281179122643266,-1.0024605057168401e-05,-0.02418356036315572,4.7597302351384847e-05,0.00603021597391405,2.601401238753899e-05
5.8,-0.19304531137187553,-1.4267341752471907e-05,-0.01617955408761418,4.928633769872391e-05,0.008937398060890311,2.5665856662740845e-05
5.81,-0.193447684004866,-1.8431220993875286e-05,-0.009424711251426743,2.5978885931569795e-05,-0.007161051276379551,2.5230488274948537e-05
5.82,-0.19331578749337552,-2.243286609804329e-05,-0.04594865657736591,3.612369689083937e-05,0.0005127992071892939,2.4932137484727438e-05
5.83,-0.1944288949129458,-2.6421912435736772e-05,-0.033875762710522395,3.740358323283909e-05,0.0024749792927092674,2.4589241622002352e-05
5.84,-0.19392245597771307,-2.9679403379390124e-05,-0.024090612456006966,4.01240977260549e-05,0.005740486806602527,2.4265884672261763e-05
5.85,-0.19413256087119635,-3.319316932426375e-05,-0.016023683748755957,4.200025611165281e-05,0.008631461403121566,2.3940585821155157e-05
5.86,-0.19451015773164215,-3.664444472306627e-05,-0.009216443821458142,1.880140189467124e-05,-0.007354765496895404,2.353427737325234e-05
5.87,-0.19434026492959333,-3.987437073860178e-05,-0.046030053262313686,2.916355437959289e-05,0.00027007973173721975,2.3255773636501903e-05
5.88,-0.1954266385872927,-4.320130337909234e-05,-0.033860999018031634,3.062327762803248e-05,0.0022221124856362613,2.2935725589654624e-05
5.89,-0.19490376018005406,-4.579291141837416e-05,-0.023998978946337957,3.352324986157755e-05,0.005468670122620217,2.2633742591645305e-05
5.9,-0.1950921403270911,-4.866181759766164e-05,-0.015869329104134522,3.5571061939039776e-05,0.008343251342216952,2.2329955100339985e-05
5.91,-0.1954466543363509,-5.148361545970204e-05,-0.00900986737661924,1.2465471438316902e-05,-0.00753021393384647,2.1949988457319348e-05
5.92,-0.19524094396317082,-5.403711504925468e-05,-0.04611240484564405,2.3030017471509365e-05,4.5267535850263343e-05,2.1690544909250565e-05
5.93,-0.19630217669153183,-5.678036871792358e-05,-0.033847432305833536,2.4654663113111426e-05,0.001987004316060227,2.139188534508453e-05
5.94,-0.19576453395231397,-5.878368738443385e-05,-0.02390877103408684,2.771930947135096e-05,0.005214411071741029,2.1110072040644747e-05
5.95,-0.19593285096597413,-6.108460626208512e-05,-0.015716588563918776,2.992412323647157e-05,0.008072409195074782,2.082652115435879e-05
5.96,-0.19626594513155737,-6.335283826430782e-05,-0.00880506849654239,6.89747968777453e-06,-0.007687754694576915,2.047043148731563e-05
5.97,-0.19602653848593832,-6.531661473907491e-05,-0.0461958305919552,1.7650211102062963e-05,-0.00016200283191173965,2.0229261621581318e-05
5.98,-0.19706419569942568,-6.75477487277476e-05,-0.03383516929744701,1.9425690051085037e-05,0.0017692839381946537,1.9950620151578792e-05
5.99,-0.19651343496462914,-6.903351961184967e-05,-0.023820081977987684,2.2641047342820354e-05,0.004977332924338377,1.9687829574150866e-05
6.0,-0.19666332002898912,-7.083647513006497e-05,-0.015565543591833375,2.498904367003405e-05,0.007818552388376107,1.942330801475672e-05
6.01,-0.1969766256060268,-7.262023853371602e-05,-0.00860211741837702,2.0280372776370233e-06,-0.007827771654814799,1.9088862239927174e-05
6.02,-0.19670558401685412,-7.407290922856191e-05,-0.046280431256207066,1.2955506148322435e-05,-0.000352124043562432,1.886518351052425e-05
6.03,-0.19772120140260085,-7.585699681733615e-05,-0.033824299272566805,1.4868563513884336e-05,0.0015685520096034066,1.8605273546706512e-05
6.04,-0.19715893795790862,-7.688950272033424e-05,-0.023732988339020267,1.822149660918589e-05,0.004757029391344682,1.8360413934499176e-05
6.05,-0.1972919890569358,-7.825807046835109e-05,-0.015416259451228598,2.069969368029754e-05,0.007581267910164757,1.8113778796006408e-05
6.06,-0.19758710276818192,-7.962005068584688e-05,-0.008401068960495195,-2.207997538892788e-06,-0.007950680006076495,1.7798955465618237e-05
6.07,-0.19728642442373712,-8.063265513058582e-05,-0.04636629036269824,8.881530472846512e-06,-0.0005255205752695107,1.7591992596468687e-05
6.08,-0.19828150522371857,-8.202867660678237e-05,-0.033814894742079105,1.091974428845737e-05,0.0013843769773739093,1.7349606505305183e-05
6.09,-0.19770932004448127,-8.266613757967889e-05,-0.023647550797534223,1.4397943984270382e-05,0.00455306170785484,1.7121639305950356e-05
6.1,-0.1978270990221631,-8.365784647246244e-05,-0.015268786413003,1.6994192364810913e-05,0.007360110120887288,1.6891809106777798e-05
6.11,-0.19810557997601563,-8.465472323138101e-05,-0.008201963730414263,-5.8715443774307425e-06,-0.00805692781455888,1.6594779707525155e-05
6.12,-0.197777196522253,-8.529122630385189e-05,-0.046453474809027284,5.368134063875278e-06,-0.0006826496480157491,1.6403767695999722e-05
6.13,-0.19875320827367204,-8.635246127042251e-05,-0.033807012620457044,7.519905622684918e-06,0.0012162946889060552,1.617777222940358e-05
6.14,-0.1981726449251653,-8.664742980890594e-05,-0.02356381525459028,1.1111878347145455e-05,0.0043649587473700915,1.5965710178382756e-05
6.15,-0.1982766743147124,-8.731416145657533e-05,-0.015123160501673283,1.3814848280435568e-05,0.007154601323785846,1.5751662052840178e-05
6.16,-0.19854004069230768,-8.799700799144716e-05,-0.008004828515595364,-9.019365793784851e-06,-0.008146995068408294,1.5470773660106034e-05
6.17,-0.1981858140531756,-8.831479716420176e-05,-0.046542036180596824,2.359316107886031e-06,-0.0008239998886068189,1.5294960468551774e-05
6.18,-0.19914418542654744,-8.908921209638265e-05,-0.03380069511393913,4.613853369207758e-06,0.0010638100692487113,1.5084292453069508e-05
6.19,-0.19855674706192872,-8.908896065307204e-05,-0.02348181347144873,8.30890415832964e-06,0.004192219005885226,1.488719771193506e-05
6.2,-0.198648506870569,-8.947734277953145e-05,-0.014979404419079856,1.1108066475078303e-05,0.00696423402384139,1.46879647260835e-05
6.21,-0.19889823294150233,-8.989202271436625e-05,-0.0078096777045288945,-1.1704164814263604e-05,-0.008221391200777771,1.4421723957074e-05
6.22,-0.19851995233466369,-8.994238798187837e-05,-0.046632011319047706,-1.968790384137224e-07,-0.0009500886215552526,1.4260372892511007e-05
6.23,-0.19946207029164498,-9.047301516851292e-05,-0.0337959704665991,2.150416331574202e-06,0.0009264000256201078,1.4064035159678601e-05
6.24,-0.1988692165610928,-9.021991989044409e-05,-0.02340156417091066,5.93862635160223e-06,0.004034313682249725,1.3881017503314685e-05
6.25,-0.1989501415167183,-9.037170678460882e-05,-0.01483752853914666,8.824228235272093e-06,0.006788474162537296,1.3695686083261341e-05
6.26,-0.19918765490345436,-9.055925676015875e-05,-0.007616513677533021,-1.3974708602512052e-05,-0.008280651745152731,1.3442744288109251e-05
6.27,-0.19878703419351496,-9.038786052961711e-05,-0.04672342353018166,-2.3484908118794017e-06,-0.0010614583963024435,1.3295136075590529e-05
6.28,-0.19971424135789562,-9.071316697806253e-05,-0.03379285409721433,8.231282483593933e-08,0.0008035170227306987,1.311219361794131e-05
6.29,-0.19911738590394634,-9.0245071415751e-05,-0.023323073818914963,3.95451256328346e-06,0.003890690342885455,1.2942408662965265e-05
6.3,-0.1991888628616323,-9.01975205636063e-05,-0.014697531618423909,6.917549264475523e-06,0.0066267648576161,1.2770116125749939e-05
6.31,-0.1994155420526056,-9.019451630010167e-05,-0.007425328085730598,-1.5875972699550632e-05,-0.008325334555768373,1.2529255753515694e-05
6.32,-0.19899421770830372,-8.984184618476831e-05,-0.04681628333003118,-4.139790912628602e-06,-0.0011586731475086596,1.239469031254624e-05
6.33,-0.1999078099856888,-8.999608613891041e-05,-0.03379134916769999,-1.634001260226983e-06,0.0006945929636269531,1.222426665135197e-05
6.34,-0.19930831815173633,-8.934666562154803e-05,-0.02324633776140672,2.313737852993997e-06,0.0037607768355521713,1.2066914120015314e-05
6.35,-0.19937168403316718,-8.913288329637226e-05,-0.014559401755320778,5.3459213065331496e-06,0.006478530340230444,1.1906846299081122e-05
6.36,-0.19958885626891743,-8.897180658884452e-05,-0.0072361024905376325,-1.744930096115484e-05,-0.008356015875210631,1.167696837423915e-05
6.37,-0.19914838571111204,-8.847359733721305e-05,-0.04691058940409221,-5.6114465378255275e-06,-0.0012423142468258562,1.1554766310924877e-05
6.38,-0.20004961035269275,-8.848715982168187e-05,-0.03379144807524881,-3.0384982765361095e-06,0.0005990431394815683,1.1396040062950433e-05
6.39,-0.19944879730005027,-8.768624826238636e-05,-0.02317134068618998,9.770163988821561e-07,0.003643985235760068,1.1250362078777131e-05
6.4,-0.19950533719281793,-8.733554546225264e-05,-0.014423117420392373,4.070741579111906e-06,0.006343179891705972,1.1101751037765166e-05
6.41,-0.19971427679621456,-8.704511444967977e-05,-0.007048809358423114,-1.8732576950800672e-05,-0.008373286429856326,1.0881863682288655e-05
6.42,-0.19925613720772617,-8.643276538933264e-05,-0.047006329673138225,-6.8006942534674565e-06,-0.0013129766109034819,1.077136751211951e-05
6.43,-0.20014619126484945,-8.63324900457485e-05,-0.03379313270102102,-4.167754511105898e-06,0.000516270098238025,1.0623569143975677e-05
6.44,-0.19954532042731898,-8.540641971421792e-05,-0.023098058044013214,-9.157593058316253e-08,0.0035397156892808183,1.0488848556803964e-05
6.45,-0.19959626619936444,-8.494462355734811e-05,-0.01428864813135533,3.0567338044292447e-06,0.0062201116558637665,1.0350970386587136e-05
6.46,-0.19979819319004832,-8.455012356911595e-05,-0.006863412913560296,-1.9760403115265517e-05,-0.008377747665818057,1.0140178323247508e-05
6.47,-0.19932378080511626,-8.385107830299887e-05,-0.04710348207481729,-7.741520937524582e-06,-0.0013712649676222554,1.0040753441255854e-05
6.48,-0.20020380983254427,-8.366057513420344e-05,-0.03379637593781126,-5.055132291292434e-06,0.00044566733990913,9.903162200675532e-06
6.49,-0.19960409170849402,-8.263246975559468e-05,-0.023026456617003532,-9.247847787506309e-07,0.0034473600675851944,9.778720940204316e-06
6.5,-0.19965062097782038,-8.208224100414441e-05,-0.01415595551890192,2.27176408267775e-06,0.0061087162520539265,9.650893635078673e-06
6.51,-0.19984670005968042,-8.160582432026331e-05,-0.006679869990477982,-2.056428459524668e-05,-0.008370008192653641,9.448388608411736e-06
6.52,-0.19935732987974575,-8.084394487184454e-05,-0.04720201566499327,-8.464848747566135e-06,-0.0014177903407031778,9.35942402443184e-06
6.53,-0.20022842702971388,-8.058387290788005e-05,-0.03380114218742847,-5.730965550878283e-06,0.00038662278490226134,9.23136503892768e-06
6.54,-0.19963101841824482,-7.947394742302549e-05,-0.02295649551342649,-1.5523634148716767e-06,0.003366305388594015,9.116562496498113e-06
6.55,-0.19967425362921176,-7.88550669206245e-05,-0.014024994179351324,1.6866543831515877e-06,0.006008380146807618,8.998143906381568e-06
6.56,-0.19986559363971423,-7.831604698083083e-05,-0.006498130922238943,-2.117281498922379e-05,-0.008350680472013868,8.803195959326431e-06
6.57,-0.1993624994689469,-7.751194575078557e-05,-0.04730189139934282,-8.998721515942544e-06,-0.0014531667851450918,8.724104816823725e-06
6.58,-0.20022570492272962,-7.720029726598909e-05,-0.03380738849756426,-6.22274634674199e-06,0.0003385219872090088,8.6049463507546e-06
6.59,-0.19963170823089627,-7.602613205648368e-05,-0.022888127091391652,-2.0012593337497406e-06,0.0032959369785258534,8.499177789947448e-06
6.6,-0.19967271644105722,-7.535576607153871e-05,-0.013895712456246656,1.2749959935238325e-06,0.0059184887635312464,8.38956364608385e-06
6.61,-0.1998603699071566,-7.477088281859778e-05,-0.0063181403575640616,-2.161186180447601e-05,-0.008320377768572822,8.2015131919701e-06
6.62,-0.1993447047610175,-7.394225232104645e-05,-0.0474030631636424,-0.003285980148894771,-0.0014763885160361074,-6.303744978701252e-06
6.63,-0.20020126214603806,-7.35946992236336e-05,-0.033802527923398884,-0.007852505081284704,0.00030457286286580195,-2.5184835012943977e-05
6.64,-0.19961248140631938,-7.237175969621035e-05,-0.02277163609676336,-0.012007032663377274,0.003241400852398364,-4.2518875777191735e-05
6.65,-0.19965326252702198,0.00024938948461894483,-0.013661974556100631,-0.01615360765644476,0.005846057428139663,-6.022191840628157e-05
6.66,-0.1998393590341152,0.0010196376432070053,-0.005959020263901493,-0.033316617436045054,-0.008261189844117884,-0.00017069212131899512
6.67,-0.19932561146518424,0.002188255872059841,-0.04663843391483624,-0.04054598896489736,-0.0014751755322266963,-0.00015728699616800727
6.68,-0.20017838981090108,0.0037716289158495897,-0.032799644706926756,-0.04336523831870194,0.0002922669802775193,-0.00018377007248590772
6.69,-0.19959631906374398,0.007037011187094322,-0.021558807290489312,-0.047082997803365376,0.0032054497294274845,-0.00019663868606654237
6.7,-0.1996374208168561,0.01101696850858147,-0.012259030768291268,-0.05043530140873781,0.005789325734646459,-0.00021339798533775146
6.71,-0.19982237109417156,0.015278971507992622,-0.004382756237930607,-0.06759830454029844,-0.008197707882423255,-0.0003291441568921995
6.72,-0.19931379613424838,0.019815673142353774,-0.044483881325163566,-0.07345527144276369,-0.0014682438322489305,-0.00031168136740279635
6.73,-0.20016101119679774,0.024778037979178436,-0.030487368150033944,-0.07555394807123686,0.0002851274417458411,-0.0003354499123316378
6.74,-0.19958435869327218,0.031425928510575574,-0.019112402398491213,-0.07837773275125559,0.003174602284757526,-0.00034508729923222824
6.75,-0.1996252830593903,0.03865641907907502,-0.00969712896647934,-0.08086132849387871,0.005737537603427149,-0.00035834135133247
6.76,-0.19980849268463885,0.04610012300787503,-0.0017211311487130843,-0.09802432545004175,-0.008127350256789304,-0.00048387206794257674
6.77,-0.19930486359953647,0.05357266035899144,-0.04130757254472428,-0.10225233414078919,-0.001455128783584129,-0.0004587271594487547
6.78,-0.20014595955686332,0.06156287610359357,-0.027229498513747785,-0.10357994566790454,0.0002841039308759464,-0.0004792427253867731
6.79,-0.19957420223093436,0.07123706913692018,-0.015798636070485372,-0.10543090273399987,0.0031496731520653607,-0.00048408808740417735
6.8,-0.19961448192162834,0.08133281314437468,-0.006345379723882161,-0.1069926096967201,0.005691514799010638,-0.0004927180236109251
6.81,-0.1997955237165172,0.09156500035301107,0.0016535335944922736,-0.12415560102123457,-0.00804963270150827,-0.0006316670530992076
6.82,-0.19929658003903228,0.10150643200645959,-0.03749042072342945,-0.12667361031576518,-0.0014352801679283905,-0.0005959686536334642
6.83,-0.200131125591696,0.11212770274271477,-0.02340876829265426,-0.12722465341650105,0.0002897130643453342,-0.0006128653732071778
6.84,-0.199563877458786,0.12442652854938174,-0.012001348395074274,-0.12809227299431086,0.003131161786343064,-0.0006117214515875465
6.85,-0.19960317642286896,0.13697408782320508,-0.00258728380941875,-0.1287345715752769,0.005651728537932217,-0.0006148950286494243
6.86,-0.19978175778589957,0.14957790111402858,0.005359069632504543,-0.145897557850691,-0.007964351672283675,-0.0007703002293214155
6.87,-0.1992872372014176,0.16151615358284133,-0.03341745465235135,-0.14672816248584913,-0.0014084610416465176,-0.0007217658119306861
6.88,-0.20011495523775125,0.17435853736813556,-0.01940624404284108,-0.14652735856012208,0.00030215234230468327,-0.000734834565061122
6.89,-0.1995520061726097,0.18886756034453,-0.00809658338596364,-0.14644357768910002,0.0031192379307897113,-0.0007268032781636983
6.9,-0.1995901621043572,0.20345118740383583,0.0012074700350694911,-0.14620364915781642,0.005618313391697332,-0.0007239283105783707
6.91,-0.1997661668440287,0.2180106691973549,0.009033032313254807,-0.1633666309776993,-0.007871589651580923,-0.0008982057926890575
6.92,-0.19927585299228667,0.23149017513546255,-0.02944794996295741,-0.1625958819826298,-0.0013747410384120024,-0.0008350926026103298
6.93,-0.2000966577675456,0.24615066230193605,-0.015571855058738038,-0.16168609040590587,0.0003213122298305457,-0.0008442400689138084
6.94,-0.1995380073260833,0.26246288475695323,-0.00442404981981781,-0.16070822680941355,0.0031137612467281766,-0.0008286798913335224
6.95,-0.19957506010470638,0.27868092641325504,0.004710209751124239,-0.15964365401224573,0.005591094103948875,-0.0008193633502799518
6.96,-0.1997485718874259,0.2947963334976045,0.012358321157535102,-0.17680663196477317,-0.007771691111193553,-0.0010143234929990744
6.97,-0.19926232129208188,0.309390836488177,-0.02589159063148827,-0.1745569707921824,-0.001334462344329615,-0.0009353744249008431
6.98,-0.20007633224849997,0.32548577372226717,-0.012202394472637934,-0.1729910545540206,0.000346816123175307,-0.0009405939236979357
6.99,-0.19952219833641038,0.34321413273197265,-0.001267045099950792,-0.17119034701989486,0.0031143277185591936,-0.0009170829731243768
7.0,-0.1995583931524436,0.36068895484353547,0.00765142910807981,-0.16936953916192318,0.0055696375795899755,-0.0009010977058857307
7.01,-0.19972969440118504,0.3779859397612384,0.015079412065688302,-0.1865325138207956,-0.007665215097727621,-0.0011179846757342067
7.02,-0.19924744036003972,0.3933054517180068,-0.022994135591147824,-0.1829447379081484,-0.001288184906873875,-0.0010223732031254494
7.03,-0.20005497313846377,0.41047784863579295,-0.009529010398523496,-0.18078016430547608,0.00037807860069687333,-0.0010237234434698683
7.04,-0.19950577833327543,0.4292625511403969,0.0011582501713292004,-0.17823418035505378,0.003120331772029186,-0.0009920272458210212
7.05,-0.19954154835133409,0.44764613548853305,0.009829789000548317,-0.17573005541427575,0.005553318047494702,-0.0009692843663121266
7.06,-0.1997111000662244,0.465780831220286,0.017009722981242703,-0.19289302733409247,-0.00755287677105382,-0.0012088281824151122
7.07,-0.19923283971934325,0.4814747558734567,-0.020931609299168485,-0.18811447330713152,-0.001236623078836237,-0.0010961046413186656
7.08,-0.20003438130800077,0.4993981733392161,-0.007712866292308718,-0.18540979647453684,0.0004143700732297754,-0.0010936939256240717
7.09,-0.19949072392222433,0.5189105783198755,0.002705689183812865,-0.18219749872774835,0.003131032659282996,-0.0010537371009106537
7.1,-0.19952665974543038,0.5378872351036179,0.011113728248801635,-0.17908340287788818,0.005541384506953,-0.0010242627384515772
7.11,-0.19969506961814432,0.5565486108327633,0.018031995878686757,-0.19624637259198124,-0.007435487590391952,-0.0012867368167774514
7.12,-0.19922084119272654,0.5723063836482467,-0.01981105484105683,-0.19042336028684173,-0.001180582888763904,-0.0011567774560891277
7.13,-0.20001701566130237,0.5906865458493726,-0.006846959266226804,-0.18723599163400068,0.0004548793338171929,-0.001150751692119372
7.14,-0.19947963270539049,0.6106307450481907,0.0032963247775796845,-0.18343462211759753,0.0031456172587620863,-0.0011025930039390965
7.15,-0.19951644523175105,0.6299179126267873,0.011437722129414851,-0.17978177621201913,0.005533023264540549,-0.0010665084938491732
7.16,-0.19968443012885473,0.6488283227623626,0.018093716960265738,-0.19694474423143873,-0.0073139003321155156,-0.0013517882221506668
7.17,-0.19921428604519065,0.6643784740001379,-0.01967586214846051,-0.19021792116498515,-0.0011209056204290486,-0.0012047478097211187
7.18,-0.20000581709922471,0.6829533754215689,-0.006962147232059124,-0.18660277466832634,0.0004987689087261474,-0.001195281223186948
7.19,-0.19947554418919822,0.7030662526075204,0.0029117270372580606,-0.18228597267387703,0.0031632547338016153,-0.001139091558539125
7.2,-0.19951402585149935,0.7224140424488823,0.010795034661725822,-0.1781619524736499,0.00552741152993153,-0.001096596417887272
7.21,-0.19968237374712317,0.7413285942314829,0.017199360975439504,-0.19532491928651216,-0.007188962336847345,-0.0014042160583073596
7.22,-0.1992163538488967,0.7564368451351555,-0.02051395359359276,-0.18782656107755882,-0.001058420675803219,-0.0012404844089810073
7.23,-0.2000040275973447,0.7749758770980719,-0.008035735028499857,-0.18383528668552132,0.0005452206601961451,-0.0012277722061408902
7.24,-0.19948176028350417,0.7950261777489587,0.0015850347878654247,-0.17907203470218128,0.0031831409033469225,-0.0011638151330934307
7.25,-0.199522748332015,0.8142161131097225,0.009228477573230975,-0.17453994277935758,0.005523760303012653,-0.0011151723383161529
7.26,-0.199692282567554,0.8329212802182795,0.015400901567375058,-0.1917029088501409,-0.0070614784226817285,-0.0014443787027585574
7.27,-0.19923039005220744,0.8473880832493563,-0.022267461119440668,-0.18355552143181483,-0.0009939088218780187,-0.0012645412178266908
7.28,-0.20001502134547877,0.8656905394799352,-0.010001320625008248,-0.179236128139562,0.0005934708309333237,-0.0012487936857175
7.29,-0.199501679905012,0.8854773161282026,-0.0006090303017458609,-0.17409024539545853,0.003204531799237199,-0.0011774082930227116
7.3,-0.19954602375804598,0.9043205729231119,0.006820334768065095,-0.1692083383462678,0.005521346287152761,-0.0011229314943529795
7.31,-0.19971757177827953,0.9226323488542576,0.012787679501968796,-0.18637130411489927,-0.006932183608293734,-0.001472733580775926
7.32,-0.1992597537459062,0.9362901484566422,-0.024842868810992513,-0.17768707646191792,-0.000928075706216361,-0.0012775357152308214
7.33,-0.20004215690150318,0.9541833579129744,-0.012758940357571191,-0.17308380837044438,0.0006428348341778337,-0.0012589734066502608
7.34,-0.19953865647792668,0.9735340434868789,-0.0035642884554931697,-0.16761379891661404,0.0032267669066145,-0.0011805591718908799
7.35,-0.19958719043700057,0.9918694062038824,0.0036822936877456414,-0.16243540742914261,0.005519533496277892,-0.0011206015620627624
7.36,-0.19976155780199178,1.0096312006258046,0.009476412330400308,-0.17959837330987632,-0.006801724991517287,-0.0014898158105577598
7.37,-0.1993076908313185,1.0223415994525809,-0.028120896864436418,-0.1704791712267756,-0.0008615347926185278,-0.0012801312832049078
7.38,-0.20008865586618185,1.0396788584143835,-0.01618483977949836,-0.16563254309471115,0.0006927227532469386,-0.0012589810407439297
7.39,-0.19959588222207003,1.0584471423191744,-0.00715274335760796,-0.15989166646875716,0.0032492831759199934,-0.0011739845074393057
7.4,-0.19964940364047834,1.0761388225999369,-5.404491076888007e-05,-0.15446529745409276,0.0055177857503491525,-0.0011089291210981114
7.41,-0.1998273539349782,1.0932192410617603,0.005601870185500957,-0.17162826383427107,-0.006670651682545486,-0.0014962202382869407
7.42,-0.19937723454432899,1.1048701935045813,-0.03196564460239415,-0.16216595443950507,-0.0007947984737008956,-0.0012730227466211958
7.43,-0.20015750896718032,1.1215286161103677,-0.020140431793436164,-0.1571128834115071,0.0007426468574519766,-0.001249514392325414
7.44,-0.19967629986794577,1.1395922439527695,-0.011233342824823467,-0.15114935859133344,0.0032716211887131672,-0.0011584174644876347
7.45,-0.1997355530924949,1.156527663539464,-0.004245718514539476,-0.14551890465128184,0.005515671501631747,-0.0010886687278103403
7.46,-0.1999177928979634,1.1728182671832954,0.0013085424299674742,-0.1626818718901074,-0.006539411486212923,-0.0014925861991730142
7.47,-0.1994711329267318,1.1833213783507546,-0.03623270412589363,-0.1529588375443855,-0.0007282759530396537,-0.001256924378993816
7.48,-0.20025140853974221,1.1991997476279437,-0.024480183711261816,-0.14773282876875593,0.000792222570179998,-0.001231287945157178
7.49,-0.19978254051977729,1.2164583273621687,-0.01565963241745294,-0.14159011185545328,0.003293424953700573,-0.0011345976315507258
7.5,-0.19984820562868322,1.2325459347151124,-0.008745816906241544,-0.13579511846129658,0.005512862496490552,-0.001060574013673687
7.51,-0.20003537461121823,1.247959045502789,-0.0032565336027801095,-0.15295808688874557,-0.0064083529832759615,-0.0014795845182403117
7.52,-0.1995918005448516,1.2572470233029875,-0.04077609691677253,-0.14304783535983795,-0.000662276476202605,-0.001232559885360514
7.53,-0.20037270488160175,1.272263698117726,-0.02905831046007279,-0.1376791937989208,0.0008411643149461947,-0.0012050232951942902
7.54,-0.19991688455789358,1.2886365681996637,-0.020286200026475854,-0.1313962904887114,0.00331443677550341,-0.0011032627558364384
7.55,-0.19998957066391654,1.303803735108744,-0.013409679340270486,-0.12547224863049516,0.0055091277223036,-0.0010253903979938273
7.56,-0.2001822357833305,1.3182703296532594,-0.007949721094746565,-0.14263521854648217,-0.0062777317172340915,-0.0014579063867891599
7.57,-0.1997412915599739,1.3262946161329836,-0.0454539901184603,-0.1326030294139489,-0.0005970165703051466,-0.001200654006734342
7.58,-0.20052338301823625,1.340385530461674,-0.03373424682706627,-0.12711908020583707,0.0008892775701136682,-0.0011714411363341502
7.59,-0.20008124248960257,1.35580972627114,-0.02497390191535942,-0.12073086831613074,0.0033344885276473946,-0.0010651419010792053
7.6,-0.20016148459589544,1.3700007536510128,-0.018099877650001872,-0.11470951233064083,0.005504323964222098,-0.000983849118016431
7.61,-0.20036013797408714,1.3834684728974977,-0.012635526118742746,-0.13187248400451593,-0.006147719309362296,-0.0014282538355149057
7.62,-0.19992129011825455,1.3901970661711616,-0.05013322034841394,-0.12177605406944475,-0.0005326300857093919,-0.0011619254814178798
7.63,-0.20070505650338077,1.4033138432179015,-0.038376937716577686,-0.11620136065831582,0.0009364483201982001,-0.001131254550006589
7.64,-0.2002771520182023,1.4177421835492865,-0.029593919208537045,-0.10973890765826486,0.003353490508264516,-0.0010209497937584424
7.65,-0.20036541076962067,1.4309164339820768,-0.022690044723105984,-0.1036485060634833,0.00549838413507411,-0.0009366623564705881
7.66,-0.20057047008137374,1.4433477239705894,-0.017190201440087094,-0.12081147973390718,-0.006018414471503315,-0.0013913315852952903
7.67,-0.2001331151824104,1.4487631919513078,-0.054692699968938996,-0.11070154560227004,-0.0004691799936684662,-0.0011170811608308812
7.68,-0.20091897445340123,1.4608713855501776,-0.04286802923303412,-0.10505811946459018,0.0009826309268221973,-0.0010851634069991142
7.69,-0.20050578747543568,1.4742706912285186,-0.034030733715439965,-0.09854898646577916,0.003371418885952454,-0.0009713821785186483
7.7,-0.20060245137898391,1.4864008565140807,-0.027067643166844846,-0.09241461905692473,0.0054913043659278425,-0.000884519298721942
7.71,-0.20081426260531998,1.497771247525037,-0.021504312179843055,-0.1095775949321349,-0.00588985504453542,-0.0013478400996327117
7.72,-0.20037773555969807,1.5018689276402597,-0.05902580923589085,-0.09949852117438907,-0.00040667106195174836,-0.001066811120746528
7.73,-0.20116603879571926,1.5129463962360035,-0.04710406724228733,-0.09380602000082011,0.0010278352722811522,-0.0010338497299098117
7.74,-0.20076797904167165,1.5252958452816046,-0.03818413507161722,-0.08727454793907073,0.0033883025697943256,-0.0009171120416354662
7.75,-0.20087336816132506,1.5363663515222115,-0.03113578856073218,-0.08111836594318866,0.005483130669172691,-0.0008280829873771216
7.76,-0.20109220967512442,1.5466628766080959,-0.02548438011729104,-0.09828134420164159,-0.005762030347708496,-0.0012984696939731166
7.77,-0.20065579310113435,1.5494492514900315,-0.06304189351880041,-0.08827167211006948,-0.00034506269494845483,-0.001011784639204137
7.78,-0.20144682842726525,1.5594846648303573,-0.05099782534045971,-0.08254758523618273,0.0010721138641654842,-0.0009779738928077976
7.79,-0.20106423830767994,1.570774283745635,-0.04197038155240307,-0.07601516169653436,0.0034042101715727807,-0.0008587865878915204
7.8,-0.2011786091671297,1.580779831735768,-0.034814251428372245,-0.06985663001314334,0.005473945819541538,-0.0007679878669161194
7.81,-0.20140469695562047,1.5899995817525436,-0.029053732149009193,-0.08701961080449495,-0.005634893272559808,-0.001243895580193707
7.82,-0.20096763067911638,1.5914908182779186,-0.06666698954660433,-0.07711256688062001,-0.0002842813784373656,-0.00095264693405473
7.83,-0.20176162820462196,1.6004822934423402,-0.05447888703713488,-0.07137238793389898,0.001115549436930043,-0.0009181715549048985
7.84,-0.20139478811742606,1.6107115804953054,-0.04532263989887042,-0.06485769471939695,0.0034192375755439986,-0.0007970248750684856
7.85,-0.20151833924231255,1.6196558165049169,-0.03803976337479753,-0.058713816603414834,0.005463856946432647,-0.0007048379284318152
7.86,-0.20175183278681175,1.6278046259188272,-0.03215267724954174,-0.0758768000497867,-0.005508371690278199,-0.0011847737418819312
7.87,-0.20131332309603067,1.6280252636580173,-0.06984390562791987,-0.06610076574697192,-0.00022423230795723392,-0.0008900165689075873
7.88,-0.20211046050988557,1.6359791246678412,-0.05749360546758453,-0.06035815313600456,0.0011582434493643185,-0.0008550512398811791
7.89,-0.2017595944714401,1.6451557989771715,-0.04819082711549072,-0.05387739560055797,0.003433496494922297,-0.0007324160239881042
7.9,-0.201892472393439,1.6530501089384586,-0.04076574860789606,-0.04776292086256404,0.005452984196023833,-0.0006392053772842736
7.91,-0.20213348060238445,1.6601413649341978,-0.0347381330456642,-0.0649259070600334,-0.005382378861112519,-0.0011217375492943754
7.92,-0.2016927094494747,1.6591231399498696,-0.07253177397359423,-0.05530485254417028,-0.00016480990178430535,-0.0008244834480800639
7.93,-0.20249311745601517,1.666052793711792,-0.06000455805121874,-0.049571778731561156,0.001200305757061161,-0.0007891924837009188
7.94,-0.20215839915849187,1.674191662424107,-0.05054097023560189,-0.04313889833267557,0.003447104275654431,-0.000665517932355726
7.95,-0.20230070433058245,1.6810540814660158,-0.04296159598737859,-0.03706651644853651,0.005441450704842428,-0.0005716297560684686
7.96,-0.2025492915969096,1.6871076480828862,-0.0367828145186877,-0.054229505468785535,-0.0052568226377124865,-0.001055395033246143
7.97,-0.20210542510668006,1.6848884380760154,-0.07470518642804791,-0.04478339064381161,-0.00010590700425971121,-0.0007566073302858979
7.98,-0.20290919291454657,1.6908133587500984,-0.061989605306678186,-0.0390702812399358,0.0012418456366285829,-0.0007211444824728411
7.99,-0.20259075158790552,1.697935293916153,-0.05235419127558316,-0.032697152892349514,0.003460175107299458,-0.0005968564287133386
8.0,-0.20274254415753035,1.7037895228044775,-0.04461157654844783,-0.02667767247660784,0.005429374027674514,-0.0005026174628219174
8.01,-0.2029987362739405,1.7088307711521367,-0.038274088716150345,-0.0438406643686689,-0.005131613341630349,-0.000986326745473195
8.02,-0.20255093234666788,1.7054536490057615,-0.07635301347619361,-0.034585810426909766,-4.7422673179094155e-05,-0.0006869167980986649
8.03,-0.20335811312222063,1.7103984624533553,-0.06344065354824124,-0.028901674103764777,0.0012829642528334438,-0.0006514251789449297
8.04,-0.2030560390409164,1.716529479027784,-0.05362541394049458,-0.022598289852271105,0.003472812717069902,-0.0005269248093542283
8.05,-0.20321734442774186,1.7214039988067142,-0.045713501677369095,-0.01664080586096138,0.005416859081009354,-0.0004326416105753563
8.06,-0.20348113389800915,1.7254629346830086,-0.039212587381598496,-0.03380380065300058,-0.00500667026411391,-0.0009150841398110945
8.07,-0.20302854936815606,1.7209753183156096,-0.07747699886095916,-0.024753235151318477,1.0731483063009667e-05,-0.00061590862627864
8.08,-0.20383916494282062,1.7249689784115674,-0.06436220807870541,-0.01910578526443244,0.0013237485902097075,-0.0005805207321084764
8.09,-0.20355351484369066,1.7301394048629959,-0.05436187962004624,-0.012880425628457742,0.0034851045552852884,-0.00045618370658378614
8.1,-0.20372432860682466,1.7340666813359107,-0.04627720542771385,-0.006992475488589107,0.005403992597456456,-0.000362142179627712
8.11,-0.20399567981499445,1.7371771617202825,-0.03961066035174099,-0.024155473189678152,-0.0048819268001055755,-0.0008421884142735271
8.12,-0.20353747645529552,1.7316300493996906,-0.07809020750926265,-0.015319251257204517,6.862639544462628e-05,-0.0005440474972494566
8.13,-0.20435152190856343,1.734705098228595,-0.06476979599767674,-0.009715019919876824,0.0013642668154745074,-0.0005088853194781246
8.14,-0.20408232360935585,1.7389488317309798,-0.05458154582527186,-0.0035744140513475284,0.0034971174271253725,-0.00038506124155783126
8.15,-0.20426261619022057,1.7419646017247103,-0.04632292462503074,0.0022378762854390116,0.005390839035230325,-0.00029152641859977264
8.16,-0.2045414697171566,1.7441636321002818,-0.039490739425218635,-0.01492512431639655,-0.00475733426938162,-0.0007681297590999278
8.17,-0.2040768195499254,1.737610913612464,-0.0782153960798837,-0.006310628159627851,0.00012631198400780887,-0.00047176601661860334
8.18,-0.20489426717062997,1.7398028181236924,-0.06468832385309042,-0.0007550733644235983,0.001404564994840038,-0.0004369412261552606
8.19,-0.20464152385102352,1.7431566566239454,-0.05431143286216411,0.0052954510578285255,0.0035088944851260637,-0.00031395341929903956
8.2,-0.20483124446357692,1.745299288611335,-0.045879638292944946,0.0110272303398136,0.005377437848208898,-0.00022116945457174186
8.21,-0.20511752117258197,1.7466263936727344,-0.03888367334781151,-0.006135773138726198,-0.0046328645123524526,-0.0006933669602871487
8.22,-0.2046456108928396,1.739124228965494,-0.07788336400693652,0.002252008417263014,0.00018381486722100077,-0.0003994649858241184
8.23,-0.20546641357199746,1.7404707870749547,-0.06415042633989287,0.007754402172989651,0.0014446650595365347,-0.000365079178921138
8.24,-0.20523010755724158,1.7429738312424448,-0.05358597181981395,0.013710778591179761,0.0035204534677550307,-0.00024322472751172602
8.25,-0.20542918765187324,1.7442837534842326,-0.04498341834135999,0.019358342152592904,0.0053638019947223215,-0.0001514150765422195
8.26,-0.2057227919571858,1.7447804143966295,-0.03782708354549413,0.002195335835598576,-0.004508511371782745,-0.0006183273121859897
8.27,-0.20524282662748305,1.7363866724284804,-0.07713133253872684,0.010353546410346474,0.00024113720836176338,-0.0003275138928713836
8.28,-0.20606692086033718,1.7369274822609526,-0.0631948518758918,0.015799173655688004,0.0014845638919022788,-0.00029365888744916155
8.29,-0.20584701676540362,1.7386206009240013,-0.05244539799775794,0.021658465274965122,0.0035317860500081403,-0.00017320890456602863
8.3,-0.20605537297768706,1.739139790841726,-0.04367583354536464,0.027219135118362003,0.005349917545409796,-8.257666012532179e-05
8.31,-0.20635619570441577,1.7388489428871168,-0.036363780751003105,0.010056126013955495,-0.004384291186906119,-0.0005434067965320152
8.32,-0.20586740173911267,1.7296226945040516,-0.07600139038999032,0.017983798293743213,0.0002982565622743367,-0.0002562515857649173
8.33,-0.20669470995215988,1.7293986809630013,-0.06186492175430658,0.023369844025728642,0.0015242333918436988,-0.00022300975832874906
8.34,-0.20649115738180512,1.7303240342370074,-0.05093422451807328,0.029130121038921836,0.0035428581608382336,-0.00010420984554440902
8.35,-0.20670869398387026,1.7300955634258486,-0.04200244010377219,0.034602133766981236,0.005335744240754856,-1.4938204857661242e-05
8.36,-0.2070166148193664,1.7290611484854779,-0.03454027378779756,0.017439121937703857,-0.004260242434614168,-0.00046897048886637894
8.37,-0.20651824204520608,1.7190622080853757,-0.07453903577925303,0.02513695105404204,0.0003551265789408413,-0.00018598709668250215
8.38,-0.2073486747633524,1.7181152015810497,-0.060207090939456975,0.03046130790995915,0.0015636213778072495,-0.00015343175099462075
8.39,-0.20716141051480008,1.7183158164657542,-0.04909982269651891,0.03612153299512744,0.003553611117824749,-3.650261856356109e-05
8.4,-0.20738802131603506,1.7173834463246607,-0.04001138353970646,0.0415039353297721,0.005321216845741054,5.1244541266247154e-05
8.41,-0.20770291058624935,1.7156500151882526,-0.03240539406590415,0.024340920848489333,-0.004136424654646887,-0.00039535315672067396
8.42,-0.20719423414305993,1.7049385267275952,-0.07279183677155743,0.031811053884057035,0.0004116784193120941,-0.00011700058819692598
8.43,-0.20802769142846955,1.7033108893915738,-0.05826963086263959,0.03707224490825778,0.0016026531764416674,-8.519634786848944e-05
8.44,-0.20785664126776737,1.7028302831967324,-0.04699112839290365,0.04263216675602299,0.0035639634306494855,2.966543329483596e-05
8.45,-0.2080922112135397,1.7012381065972804,-0.037752129351531494,0.0479247184369113,0.005306247151299318,0.00011574289237435971
8.46,-0.20841393142845277,1.6988504667247994,-0.030009052345292275,0.0307617013857495,-0.004012916793418618,-0.00032286001722251173
8.47,-0.20789425281719787,1.6874865303417863,-0.07080822481242421,0.03800754249003705,0.0004678227423813809,-4.9544395938454385e-05
8.48,-0.20873062554827015,1.6852208255757617,-0.05610144821588392,0.043204649380988794,0.0016412337595520926,-1.854761405510624e-05
8.49,-0.20857570561361172,1.6841026729474962,-0.04465748634885358,0.04866470404597551,0.0035738131303107755,9.407352618226148e-05
8.5,-0.20882011193990024,1.6818947979668764,-0.03527433449335149,0.0538677879281602,0.005290726478468451,0.00017835398992360838
8.51,-0.20914851891262742,1.6788977026838126,-0.02740113703936231,0.03670476839754374,-0.003889815095180559,-0.0002517676249259085
8.52,-0.20861716672371244,1.6669410387404326,-0.06863643051246981,0.04373079905299487,0.0005234521296087593,1.6155854998110462e-05
8.53,-0.20945633757207816,1.6640797402933671,-0.05375104745297676,0.04886339578114316,0.001679250294746068,4.629667521025538e-05
8.54,-0.20931745536856283,1.6623675801641369,-0.04214763968946045,0.054224615664767245,0.003583040489627807,0.00015652622481824736
8.55,-0.2095705684901361,1.6595878522362995,-0.03262686412597304,0.05933915484176975,0.0052745285505573745,0.00023889953942260317
8.56,-0.20990551220734233,1.6560257278008805,-0.02463055945867154,0.04217613292954511,-0.0037672306605769697,-0.00018232486368345907
8.57,-0.20936184252917656,1.6435353757016102,-0.06632356576830034,0.04898774692528126,0.000578443822510143,7.990007986370844e-05
8.58,-0.21020368645707777,1.6401206129135204,-0.05126563955570873,0.05405583860393909,0.0017165749864328857,0.00010914385849492908
8.59,-0.2100807417448891,1.6378575919295812,-0.03950886632964057,0.05931976886993086,0.0035915110115082114,0.00021685220343974
8.6,-0.21034242593032104,1.6345493511193965,-0.02985695576995795,0.06434715063877583,0.00525751261011745,0.00029722453315189087
8.61,-0.21068375101407355,1.6304660584998132,-0.021744445710680793,0.04718412644940809,-0.003645286782302146,-0.00011475401925346748
8.62,-0.21012714748636085,1.617500107862213,-0.06391485094070504,0.05378747910479978,0.0006326626606158259,0.0001415125276925407
8.63,-0.21097153236837585,1.6135734440148042,-0.04869039628374594,0.0587914459784996,0.0017530680956358094,0.0001698251801268455
8.64,-0.2108644176068708,1.6108020934169076,-0.03678625965619631,0.06396006818337116,0.003599078573792279,0.0002749029925129663
8.65,-0.211134531333812,1.6070079638819124,-0.027009527236998565,0.0689020746472965,0.005239526670336108,0.0003531959711648711
8.66,-0.21148207762777815,1.6024465923214493,-0.01878747198702513,0.051739048291123343,-0.0035241161558829974,-4.925191205349354e-05
8.67,-0.21091195115729988,1.5890619444558496,-0.0614529832887456,0.05814091943547344,0.0006859641195425788,0.00020084055341455022
8.68,-0.21175873804679668,1.5846641854411203,-0.04606784443694778,0.06308146582672977,0.0017885810398970393,0.00022819456452760276
8.69,-0.21166733885635836,1.5814262285207548,-0.03402214918679647,0.06815712851985385,0.003605588632734996,0.0003305517232309712
8.7,-0.21194573507798964,1.5771879374959497,-0.024126622690801014,0.07301587359693767,0.00522041080407219,0.00040670159086822943
8.71,-0.21229933770072762,1.5721906271126684,-0.015801336310516945,0.05585284518946701,-0.003403858051539134,1.4008927964045481e-05
8.72,-0.2117151264080519,1.5584427850034999,-0.0589776401227482,0.06206051535580278,0.0007381973618315841,0.00025775338151647737
8.73,-0.21256416955495183,1.5536138156813095,-0.04343739313128481,0.06693862338508225,0.001822959487657608,0.00028412738516408163
8.74,-0.21248836493015233,1.5499500033611113,-0.03125565193329294,0.07192397940150466,0.003610881400607293,0.00038369187989319256
8.75,-0.2127748913416383,1.5453082270022733,-0.021246988453071936,0.0767018519771343,0.005200000387420219,0.00045764861369743505
8.76,-0.2131343808997599,1.5399160181361893,-0.012824358464058605,0.059538821638372715,-0.0032846555207728233,7.487905995163331e-05
8.77,-0.2125355494086989,1.525858903130839,-0.05652510669307276,0.06555996087645266,0.0007892082261514452,0.0003121408721433194
8.78,-0.21338669656145726,1.5206375490617319,-0.04083498442497557,0.07037684874387158,0.0018560463745596052,0.00033751923844842793
8.79,-0.21332635906645692,1.5165875210199076,-0.0285223459073336,0.07527479888092038,0.0036147949261954113,0.0004342360685335815
8.8,-0.2136208579983645,1.5115817550226396,-0.01840576825173912,0.07997441181203528,0.005178129228158201,0.0005059625158203161
8.81,-0.21398606078193438,1.5058344618923414,-0.009891197407796426,0.06281137966583641,-0.0031666526993804744,0.00013323091774766624
8.82,-0.213372099739928,1.4915202555121354,-0.0541280188670612,0.06865394832783271,0.000838842093061217,0.0003639122987407911
8.83,-0.21422519212777047,1.485944167765041,-0.038292856743282755,0.07341103292078055,0.0018876847817280427,0.00038828473118938055
8.84,-0.21418018796737215,1.4815463370521087,-0.02585405358246362,0.07822467565979453,0.0036171680197473874,0.00048211480862366056
8.85,-0.21448249661659702,1.476214789666308,-0.015634307288792115,0.08284882031151096,0.005154632522315313,0.0005515858284068002
8.86,-0.2148532344037335,1.4701508962655652,-0.007032674602669431,0.06568578648493519,-0.003049992257163416,0.00018895759379704822
8.87,-0.21422366005552362,1.4556299056200928,-0.05181520926100802,0.0713579472913979,0.0008869465774137327,0.0004129951447316999
8.88,-0.2150785324062099,1.4497354666387352,-0.0358394089516878,0.07605681086137357,0.001917720627979976,0.00043635628865323775
8.89,-0.21504872153244037,1.4450269255350534,-0.023278724619046898,0.08078939777043007,0.003617842975899662,0.0005272753533160325
8.9,-0.21535867189115265,1.4394064310518928,-0.012960051947175089,0.08534100374280043,0.005129349594098927,0.0005944769717838819
8.91,-0.2157347621967176,1.4330630072656447,-0.004275691765087686,0.06817796836547915,-0.0029348130339378027,0.00024197163096864653
8.92,-0.2150891156738055,1.4183835525649613,-0.04961164403738394,0.07368800902230821,0.0009333740085721237,0.00045933392529217814
8.93,-0.21594559630244703,1.4122058010723748,-0.033499153460070374,0.07833036965769827,0.0019460051389452355,0.0004816829889247601
8.94,-0.21593083246784772,1.4072222462235828,-0.02082040481354852,0.08298526609145017,0.003616668059192199,0.0005696805425048775
8.95,-0.21624825148336413,1.4013481970298614,-0.010406534514117993,0.08746736577672838,0.005102126385517098,0.0006346091267425089
8.96,-0.21662950750567234,1.3947608330688865,-0.0016432303340252474,0.07030432898022873,-0.0028212478916688315,0.00029220383016935003
8.97,-0.21596735422235724,1.3799691557192517,-0.047538438749938905,0.07566059459138176,0.0009779836697304295,0.0005028890390380908
8.98,-0.21682526524458012,1.3735417288440743,-0.031292746029976115,0.08024828020134513,0.0019723970661046294,0.0005242294280564236
8.99,-0.21682539610878848,1.3683174038847667,-0.018499279477168784,0.08482893090072591,0.0036134997268089295,0.0006093076919493526
9.0,-0.21715010566580872,1.3622236991173153,-0.007993429704811206,0.08924462850029419,0.005072817672002187,0.0006719691453613286
9.01,-0.21753633644649994,1.3554264564996643,0.0008455792155359632,0.07208159041748197,-0.0027094218037806853,0.00033960208017658607
9.02,-0.21685726567355346,1.3405666464416655,-0.0456129412995665,0.07729242492390777,0.0010206437766669156,0.0005436356533358211
9.03,-0.21771642293444415,1.3339217372676515,-0.029237080383381908,0.08182735044208977,0.0019967646376855947,0.0005639746194486951
