timestamp, accel_x, accel_y, accel_z, gyro_x, gyro_y, gyro_z
0.01,-0.1,-0.1,419999.89999999997,0.003661438532432724,0.003661438532432724,0.0015757535213963773
0.02,0.0,0.0,-420002.99999999994,0.0027288897114379424,0.0027289765517060334,0.0010430440899009165
0.03,0.0,0.0,-2.9999999999930083,0.0028859438134902203,0.0028860544743196464,0.0012213876034368877
0.04,-0.0002493459283991992,-0.00024934199935290797,-3.0000000091590096,0.002779326552282018,0.002779506442278679,0.0011577748235411574
0.05,-0.0004351931285465523,-0.000435175490509669,-3.0000000278107564,0.0027319342998728814,0.0027321569504529073,0.0011745320203829198
0.06,-0.0006317397839067203,-0.0006317019156059282,-3.000000058577257,0.002561207527427416,0.0026673541548600534,0.0011628274844504743
0.07,-0.0008311127496518966,-0.0008310450814353954,-2.9163904214968284,0.002529367423278243,0.0026048024783550863,0.0011595841319642672
0.08,-0.0010573072234733116,-0.0010571993063280389,-2.6605193680850903,0.0024613233551584817,0.0025395009398371396,0.001152433923875429
0.09,-0.0012832663761872217,-0.001275326202930421,-2.4586141493898594,0.002399464851940316,0.002473001317931665,0.0011456632444211442
0.1,-0.0015073843425441294,-0.0014935698795664296,-2.2960401830474098,0.0023342273698937007,0.0024052668030624257,0.001137920573924135
0.11,-0.0017284646492976713,-0.0017083905917010737,-2.1622113932906473,0.001985230270586406,0.002334425046664789,0.0011297369453486653
0.12,-0.0019457674404078995,-0.0019196535320241542,-2.049927740479518,0.0019939847109573406,0.002265646884298559,0.0011210435393200133
0.13,-0.00215916910510464,-0.0021271037258639375,-1.9526534103064819,0.0019165493449985439,0.0021957064173418407,0.001111926405368204
0.14,-0.0023681694459599654,-0.0023079745939789146,-1.8669329358189657,0.0018590291743400293,0.002125614514750526,0.0011024231662466943
0.15,-0.0025728790797756008,-0.0024902658912367634,-1.7898568366803147,0.0017964416573139528,0.00205534868639536,0.0010925844631869963
0.16,-0.002773178749659194,-0.002667204207347244,-1.7193175662555404,0.00128603167455165,0.0019794538525318003,0.0010824160782317435
0.17,-0.002968755521748275,-0.002840139928656659,-1.6545515958554802,0.0013421376615813019,0.0019108656755157435,0.0010720362739649108
0.18,-0.0031601538836906976,-0.003009235789308567,-1.592793987761354,0.0012638881372892695,0.0018408704353842296,0.0010614225149894513
0.19,-0.0033465367070662864,-0.0031371066256022785,-1.534165350882688,0.0012183407135593842,0.0017716938825599778,0.0010506239647403782
0.2,-0.0035284532741945186,-0.003270165841670131,-1.478070865346126,0.0011657904127495445,0.0017029364717378354,0.0010396648705161384
0.21,-0.0037057143934351097,-0.0033973153330978632,-1.4240768196316367,0.0005082213503730623,0.0016241485901905823,0.0010285148008512123
0.22,-0.0038778143901976652,-0.003520794237595845,-1.3729355598002257,0.0006168934676540474,0.0015594920284316349,0.0010173336483003889
0.23,-0.004045747095779905,-0.0036409289105218223,-1.322095376572463,0.0005445704146393856,0.0014924048840889636,0.0010060432577573392
0.24,-0.004207969783626245,-0.00370548207021233,-1.2726800005680161,0.0005168307620791527,0.0014269176666688594,0.0009946952646983154
0.25,-0.004365595536983595,-0.0037793031105488946,-1.2245489061157855,0.00047989059645501815,0.0013621404636306208,0.0009832982828067822
0.26,-0.004518312371141,-0.0038469481651903325,-1.1775969907645845,-0.00031302138759679583,0.0012812422945934483,0.0009717865174418937
0.27,-0.0046654162565214355,-0.003911581318081342,-1.1331195321417908,-0.00014852961125837283,0.0012228747101571116,0.0009603733925433568
0.28,-0.004808452251516167,-0.003973710812887941,-1.088075126460808,-0.0002100583425708443,0.0011604060665720514,0.000948924008163118
0.29,-0.004945010976188289,-0.003966283193661008,-1.044081791619078,-0.0002158812823119189,0.0011002227161395037,0.0009374987167947408
0.3,-0.005076984129297711,-0.003972622178006785,-1.001085533474111,-0.00023325533406404062,0.0010408337079812829,0.0009260934463958056
0.31,-0.005203916091247684,-0.003972958775929366,-0.9590439357509695,-0.0011523064833559005,0.0009576992039551373,0.000914609719617282
0.32,-0.0053249137975431,-0.003971439722437843,-0.919602660545138,-0.0009300026210099828,0.0009070649089215791,0.0009033201866223223
0.33,-0.005442126878261457,-0.003968674571525651,-0.8790921212309399,-0.000977299625346776,0.0008501096343843014,0.0008920338748734734
0.34,-0.005552114232916581,-0.003882861972645058,-0.8395238111802428,-0.0009583582395149748,0.0007960953458862374,0.0008808235099031751
0.35,-0.005657736356322611,-0.0038157856029131837,-0.8008575774809401,-0.0009534010785842981,0.0007428200349536688,0.000869674424006856
0.36,-0.005758350618212046,-0.003743351621249486,-0.7630611358422357,-0.0019916588090653177,0.0006567442710494837,0.0008584580224231621
0.37,-0.005852877798284196,-0.003670757646913466,-0.7280922284635949,-0.0017103062118549416,0.0006147086412516141,0.0008475079625925047
0.38,-0.005944079777483189,-0.00359853711502995,-0.6916262457323796,-0.0017409604070865148,0.0005636473465728002,0.0008365791447499801
0.39,-0.006027322275431045,-0.003430239907028219,-0.6560479698691779,-0.001695289901765299,0.0005161971363480682,0.0008257585742640137
0.4,-0.006106614107683405,-0.0032860783657259317,-0.6213167275959108,-0.0016660833463647208,0.00046933501981377256,0.0008150225297801233
0.41,-0.00618107455509036,-0.003137625539847955,-0.5873999893424298,-0.0028184245586789433,0.00037925255278170144,0.0008042148475327716
0.42,-0.006249447247152172,-0.0029912259429392025,-0.556559732842743,-0.002477257937291125,0.00034632408933434435,0.0007937292382112297
0.43,-0.006315084361359553,-0.0028470784942260336,-0.523811614208114,-0.0024895931396689587,0.0003012220545681391,0.0007832693884802676
0.44,-0.006372009256220873,-0.0025942213561415666,-0.49190942238652724,-0.002415850885341075,0.0002604447123934908,0.0007729372858056608
0.45,-0.00642555687069492,-0.0023712625385203644,-0.460809127176276,-0.0023610801831275936,0.00022003796582157055,0.0007627013554118356
0.46,-0.006474556705692524,-0.0021454317978818367,-0.43047591180567224,-0.003623790903313678,0.00012466505828267018,0.0007523804133574561
0.47,-0.00651759447943827,-0.0019243496100188225,-0.4034741358083238,-0.0032223463848173746,0.00010114140579042047,0.000742425423126588
0.48,-0.006558568752069787,-0.001707549600994218,-0.3741594362338674,-0.003215215155113425,6.187903011196851e-05,0.0007324924507071799
0.49,-0.006590025010173731,-0.0013697346102763434,-0.34565343899117806,-0.0031124993564757134,2.7717791271382353e-05,0.0007226983548644278
0.5,-0.006618802928188335,-0.0010678774961606899,-0.3179081942050743,-0.003031280207691401,-6.338133444426773e-06,0.000713004690239348
0.51,-0.006643391726794635,-0.0007648547175795849,-0.29088620049577685,-0.004401740286156045,-0.00010841142766165562,0.0007032077813648521
0.52,-0.006662248606788745,-0.00046972451923530875,-0.26745350254486766,-0.003939744138303255,-0.00012234760477512402,0.000693811867405709
0.53,-0.006679756539319272,-0.00018095793276968943,-0.24130635477348505,-0.003912378930716052,-0.0001559895156330023,0.0006844294083488053
0.54,-0.006686860145788554,0.00024086305439193455,-0.21593363815242128,-0.003780098704902284,-0.0001836780897179828,0.0006751914928212153
0.55,-0.00669208363062823,0.000620428911813839,-0.19128336454343753,-0.003671851947779775,-0.0002115622884432983,0.0006660536436611428
0.56,-0.006693526789871597,0.0009992257141941971,-0.16731527313851302,-0.005148291348549325,-0.00032181311282853883,0.0006567921643558642
0.57,-0.006689556693887343,0.0013665649738106144,-0.1471966015031967,-0.004625583307836133,-0.00032603154291553817,0.0006479599214237025
0.58,-0.006684963269468821,0.0017254967684006677,-0.12396508225265279,-0.004577487333663106,-0.00035431649855668636,0.0006391299846136446
0.59,-0.006668978159604351,0.002229309696676475,-0.10147635961743617,-0.004415268100774904,-0.00037571146322365803,0.0006304467050387071
0.6,-0.006651990916312642,0.0026843834561614396,-0.07967437266387378,-0.0042796279708057355,-0.00039763101952689997,0.000621860310218584
0.61,-0.0066316639127589685,0.003136574966235476,-0.05851608815277132,-0.005860938191261225,-0.0005175665997327306,0.0006131294515437066
0.62,-0.006606320218802359,0.0035733449209031333,-0.04146946238847704,-0.0052774179612940664,-0.0005119490915284935,0.0006048506845817114
0.63,-0.006581065772062137,0.003999778969460306,-0.020914649070391533,-0.0052082847306780256,-0.0005351496900775244,0.0005965619218618408
0.64,-0.006543316471746725,0.004582752908402553,-0.0010735591260413457,-0.005015899067350884,-0.0005504332725620013,0.0005884196325727871
0.65,-0.006505508816890496,0.005110359804243376,0.018113962418908613,-0.00485264594825642,-0.0005665938357802376,0.0005803694056681302
0.66,-0.006464820656405324,0.0056328347887516774,0.0366937246454313,-0.006538233275887312,-0.0006977288344468215,0.0005721544657324586
0.67,-0.006419583839027384,0.006135541745290224,0.05089754214537834,-0.0058938236206915705,-0.0006821439102022691,0.0005644101160089029
0.68,-0.006375117499839156,0.006626167054966893,0.06900184711611246,-0.0058034777060998605,-0.0007005200127399517,0.0005566432124373168
0.69,-0.006316927078782149,0.00728486002537609,0.08641897963457268,-0.005580795031676883,-0.0007098576130679998,0.000549021129397435
0.7,-0.006259678184389718,0.007881449984009203,0.10321321109785231,-0.005389806407470627,-0.0007204454262324246,0.0005414854054628919
0.71,-0.006200017721267204,0.008470556732476965,0.11943312898665681,-0.007179477005281596,-0.0008642887884686313,0.0005337658824858352
0.72,-0.0061363448465383795,0.009035178607874703,0.13101082867450486,-0.006474099047448662,-0.0008385763278700914,0.0005265318818975568
0.73,-0.006074078529270119,0.009586213404451458,0.1468782955882375,-0.0063624527372990675,-0.0008523621532021713,0.000519263051937945
0.74,-0.005996726026089158,0.010316742815074439,0.16208266067962995,-0.006109403083528631,-0.0008558906305774669,0.0005121364699970057
0.75,-0.005921364601107863,0.010978354540503756,0.17669233667305662,-0.005890618130479771,-0.0008610621674461365,0.0005050901485200949
0.76,-0.005844064303430277,0.011630058652967352,0.19075869367668474,-0.007784487483696668,-0.0010191101091464219,0.000497842377923714
0.77,-0.005763355158737264,0.012252199075097258,0.19991463620527838,-0.007018045046546286,-0.0009830726652304232,0.0004910921399885153
0.78,-0.005684633114422157,0.012859536158210325,0.2137466364970919,-0.006885066960088134,-0.000992469776465192,0.00048429537916654195
0.79,-0.005589325667281625,0.013657718245213123,0.22693717593114116,-0.00660161531782059,-0.0009902912078096101,0.0004776377419840054
0.8,-0.005497104523495902,0.014380113166431339,0.2395588368386825,-0.006355009752543299,-0.0009901678218611255,0.00047105417617459715
0.81,-0.005403417340026865,0.015090126068152384,0.25166577703572557,-0.00835343088233261,-0.0011639007134397169,0.0004642530140657827
0.82,-0.005306993037231065,0.015765139980906038,0.2585922554487752,-0.0075258015288695215,-0.0011172992395025168,0.0004579590286939304
0.83,-0.0052130730266494035,0.01642446450612531,0.27057813504427486,-0.007371494254075137,-0.0011224733764647395,0.0004516075486023393
0.84,-0.005100928956002903,0.017285927056092505,0.28194182476681817,-0.007057622870908373,-0.0011146523860854408,0.00044539176549055495
0.85,-0.004993009886933297,0.018064697370977732,0.2927601071789354,-0.006783191515521083,-0.001109318217543776,0.00043924396035610884
0.86,-0.004884095819094984,0.01882857973412456,0.30308993459016165,-0.008886697742123605,-0.0013001998612320641,0.0004328638438863215
0.87,-0.004773186623870888,0.019551674622517383,0.30796747861217,-0.007997728745832803,-0.0012427523196935216,0.0004269986838049119
0.88,-0.00466522964787542,0.020258558371929525,0.31828487280449735,-0.007822113284970173,-0.0012438326985817888,0.00042106581225199286
0.89,-0.0045372695809862106,0.02117883071749776,0.32799704541730534,-0.007477809932069479,-0.0012303960779244064,0.0004152650816478513
0.9,-0.004414715790389528,0.022009485453311495,0.3371850118938369,-0.0071755550782596385,-0.001219898038066845,0.00040952643956897243
0.91,-0.004291635546495656,0.022822729372218038,0.34590852674654116,-0.009384814133787733,-0.001429376342542904,0.0004035420414843223
0.92,-0.004167375428219995,0.02358904587889559,0.34890624391437086,-0.00843432204593538,-0.0013607581647003691,0.00039807898318887163
0.93,-0.004046441658533267,0.024339021716423322,0.3577214271643925,-0.008237427389035754,-0.00135783832012194,0.00039253871500187905
0.94,-0.0039035854605684595,0.025313605618226473,0.36594612765838974,-0.007862678093535204,-0.0013387760781552029,0.0003871270255811011
0.95,-0.003767359421549387,0.026191638243764106,0.3736656287145479,-0.007532602208968616,-0.0013231251198665792,0.0003817717965418546
0.96,-0.0036310731452008672,0.027049731617892654,0.3809424950418361,-0.009848379257875711,-0.0015526335185797253,0.0003761584167263246
0.97,-0.0034944991293911834,0.02785440692738752,0.3822184412527463,-0.008836152056706577,-0.0014724792229404266,0.0003710718095899204
0.98,-0.003361548241258283,0.028643026731222862,0.3896867053398978,-0.008618008603045535,-0.0014656187757347257,0.0003658991301321952
0.99,-0.0032046160495201315,0.02966745135405723,0.39657707450402313,-0.008212793699975759,-0.0014408860469546292,0.00036085155211527183
1.0,-0.0030555811815708225,0.030588392070857607,0.402979136069348,-0.007854895365931668,-0.001420059195182492,0.00035585509198629995
1.01,-0.0029069507280618176,0.03148686824143891,0.4089582740718356,-0.01027802305896964,-0.0016710183863847244,0.0003505888797564316
1.02,-0.0027590055940579505,0.03232508520236007,0.4086598476149561,-0.00920382410695501,-0.0015789238934223733,0.00034585435126296065
1.03,-0.0026149001381000833,0.033147964159693614,0.4149259021346552,-0.00896445995493468,-0.001568150836785395,0.0003410254129125253
1.04,-0.0024446162107160177,0.03421782794661718,0.4206245808191511,-0.00852875258134399,-0.001537670268098126,0.00033631825357540536
1.05,-0.002283541156505517,0.035177283385065795,0.42584981247983933,-0.008143024810277292,-0.0015116130632778471,0.00033165715842099877
1.06,-0.002123334766064404,0.036111758673419786,0.43066980961015133,-0.01067437892577414,-0.001785432805901906,0.0003267152270558086
1.07,-0.001964871990736694,0.03697878323531186,0.4289341633523236,-0.009537952142546614,-0.0016809581431177186,0.00032230978201379086
1.08,-0.001810382779794499,0.037831632994814526,0.4341325533374629,-0.009277391494924634,-0.0016662713809908946,0.000317801986303426
1.09,-0.0016273811915667319,0.03894263485879658,0.43877210291753954,-0.008811157851784544,-0.00162993575011982,0.00031341285831060494
1.1,-0.0014549457805690044,0.039936317526142844,0.4429511206183179,-0.008397588129882548,-0.0015985648788791017,0.0003090650193476424
1.11,-0.001283844287417249,0.04090251894866403,0.4467406568053889,-0.01103806768061325,-0.0018966456831411768,0.0003044254931038282
1.12,-0.001115634412655539,0.041793728122975146,0.4436951237707376,-0.009839143476613884,-0.001779317879750857,0.00030032754484525905
1.13,-0.0009514471603026126,0.04267238093968329,0.44795065914371435,-0.009557406579816885,-0.0017606898467530465,0.000296119564819618
1.14,-0.0007562786264684457,0.0438203428385759,0.4516539929966257,-0.009060607441303785,-0.0017183647533123203,0.00029202739926417645
1.15,-0.0005730808477549462,0.04484409231859145,0.4549078523297112,-0.008619178990269316,-0.0016815707223340644,0.0002879720077233179
1.16,-0.0003916847868355028,0.04583787741300194,0.4577861349730483,-0.01136968992139813,-0.002005305343731034,0.0002836140276204749
1.17,-0.00021442260203508035,0.0467487796333493,0.4535486619872131,-0.010107991541812973,-0.0018746213852255434,0.0002798033861044243
1.18,-4.114525007162251e-05,0.0476492053142083,0.456976855218727,-0.009805095709035459,-0.0018520006412803883,0.0002758751515012105
1.19,0.00016571545144363625,0.04883008795583191,0.45985767748391027,-0.009277688776298604,-0.0018035271709251832,0.00027206017651527394
1.2,0.00035915196443594977,0.04987988554796541,0.46229831319521963,-0.008808382642547862,-0.0017611769343902997,0.00026827769752814585
1.21,0.0005503148199203362,0.050897255940694254,0.4643755173816544,-0.0116698244354035,-0.002111951625813109,0.0002641814030055565
1.22,0.0007360027260610094,0.051823505398986,0.4590551039029833,-0.010345074444044488,-0.001967381386048924,0.0002606392361252763
1.23,0.0009178324005118185,0.05274182256704077,0.4617626116498741,-0.010021035812278872,-0.0019406951213335015,0.00025697189612354683
1.24,0.001135978792096183,0.05395173570834841,0.4639258589733686,-0.009462978599054055,-0.001885892422773929,0.00025341559466631006
1.25,0.0013391971246182188,0.055023713918279926,0.465656527275371,-0.008965776266139336,-0.0018378319099638565,0.0002498877226376252
1.26,0.0015396641313975001,0.056060823994054376,0.4670342379498038,-0.011939030908194244,-0.002217027416595609,0.00024603422014704
1.27,0.0017332117704851185,0.0569982302659703,0.4607313763926868,-0.01055095760280959,-0.0020580165164839053,0.00024274299886394392
1.28,0.001923118561012599,0.05793071320643016,0.4628164415265701,-0.010205793351511365,-0.002027172930263136,0.00023931887196905406
1.29,0.002152204887097796,0.05916592176290966,0.46435872548045154,-0.009617046358752563,-0.0019658406707995925,0.00023600392762616895
1.3,0.0023648073088069696,0.06025636981539795,0.46547444547684336,-0.009091932646693342,-0.0019118971841228748,0.0002327135311658218
1.31,0.0025741734651675563,0.06130953161570529,0.46624609876033674,-0.012177855540631772,-0.0023208894848318774,0.00022908485679642935
1.32,0.002775068026154154,0.06225406565980411,0.4590532129000735,-0.010726199139340493,-0.00214686204726824,0.00022602829099129044
1.33,0.002972631920582225,0.06319714779007973,0.46060610465303853,-0.010359929958790724,-0.002111752582276994,0.0002228308082262961
1.34,0.003212365817860212,0.06445407475683743,0.46161615074424844,-0.009740459949953822,-0.0020436732642489853,0.00021974104471689636
1.35,0.0034340065273048143,0.06555944109306461,0.4622041429769297,-0.009187426018179408,-0.0019836577332083567,0.00021667210632705437
1.36,0.003651917290826978,0.06662512636759592,0.4624554634702349,-0.012386838490258824,-0.002423818543826324,0.00021325118694995348
1.37,0.0038596920491846057,0.06757292378482133,0.4544573429399179,-0.01087135696683087,-0.002234179827759445,0.00021041415643126765
1.38,0.004064541208256833,0.06852319860001232,0.45556079214748024,-0.010484009611638982,-0.0021946812532608754,0.00020742780177239047
1.39,0.004314676751507318,0.06979842560131747,0.4561198739239103,-0.009833792843140739,-0.002119622384385411,0.00020454811980124491
1.4,0.004545055015871963,0.07091531814408351,0.4562599930579836,-0.009252839155563257,-0.0020533314705877483,0.00020168567362424339
1.41,0.004771199534209236,0.07199015830579303,0.4560694250699271,-0.012566522291533402,-0.0025260285311918384,0.00019845628932819984
1.42,0.004985427194013556,0.0729375205766377,0.44734365314269553,-0.010986996767634129,-0.0023201674360887425,0.00019582477283268878
1.43,0.0051972313735645925,0.07389174075958516,0.4480732805234311,-0.01057860656838323,-0.002276143779767593,0.0001930350233637748
1.44,0.005457562576973232,0.07518200688627803,0.4482556464324716,-0.009897631863893974,-0.0021938598968215092,0.00019035133710796275
1.45,0.005696416339635857,0.07630719170357604,0.4480208059831625,-0.009288771007949684,-0.002121077950941174,0.00018768140680400423
1.46,0.005930521159549021,0.07738797629050671,0.44745993680095353,-0.012717460598065961,-0.002627675122676583,0.0001846281562658519
1.47,0.006150807689434337,0.07833137056348534,0.4380773098588975,-0.01107370022522937,-0.002404966559754447,0.00018218916023892854
1.48,0.006369272157174394,0.0792864458102737,0.43850204555440087,-0.010644313461348821,-0.0023562708926970492,0.00017958242754348075
1.49,0.0066396269768603106,0.08058864527099238,0.438375336351271,-0.009932585046052407,-0.002266505441765055,0.00017708160218320182
1.5,0.0068867269724989105,0.08171904413982467,0.43783192442248264,-0.00929584432439484,-0.0021870063166934137,0.00017459114020029523
1.51,0.007128550261617864,0.08280271826189428,0.4369658974212598,-0.012840226740949137,-0.0027288635148994276,0.00017169940988967693
1.52,0.007354529256162548,0.08373877614563374,0.42699083468988874,-0.011132073025327318,-0.0024886706444898635,0.00016944089815455667
1.53,0.0075793892276819486,0.08469177014129581,0.42717332718211765,-0.010681749086636414,-0.002435146725681027,0.00016700447184103475
1.54,0.00785962408541424,0.08600294914107992,0.4267989827511087,-0.009939289119957761,-0.0023376338042002715,0.0001646742629724851
1.55,0.008114768478900344,0.08713563640471572,0.426007266476347,-0.009274712855358296,-0.0022511825303291365,0.000162351091947044
1.56,0.008364094772487021,0.08821929754911084,0.4248951834284753,-0.012935421719228603,-0.0028296555205247044,0.0001596070295757349
1.57,0.008595422349225168,0.08914481325865073,0.41438612484512305,-0.011162752259090459,-0.002571331856583828,0.00015751785456258872
1.58,0.008826437948011162,0.09009294014041339,0.41438313861164033,-0.010691565543385477,-0.0025128156443096697,0.0001552398484147718
1.59,0.009116432778365213,0.0914102933064452,0.4138167930278769,-0.009918416307096887,-0.002407281611038082,0.00015306884381455682
1.6,0.009379442326342552,0.09254249232766576,0.412831310612205,-0.009226067819112145,-0.00231363594032996,0.0001509016005033325
1.61,0.009636077795641823,0.09362338680912047,0.41152662152654784,-0.013003681338075078,-0.0029300760224923055,0.00014829209280629385
1.62,0.009872428022444923,0.09453531493243059,0.4005364137071865,-0.011166412958328075,-0.0026529674060898323,0.00014636192873495414
1.63,0.010109379755419284,0.09547593549680267,0.4003992134826717,-0.010674454468854311,-0.002589288443846426,0.00014423122971980149
1.64,0.010409033565370387,0.0967968020928675,0.3996910768222506,-0.009870680182772987,-0.0024754534031040986,0.0001422087936946637
1.65,0.01067974728801574,0.09792588153083315,0.398561017256327,-0.009150643409694842,-0.002374365228698973,0.00014018687562330015
1.66,0.010943515515327712,0.09900140080050177,0.3971118965040432,-0.013045682292172211,-0.003030118833584871,0.00013769953034611162
1.67,0.011184576352478784,0.09989685388138783,0.38568816503214975,-0.011143773572373051,-0.0027335652775455827,0.0001359188085821917
1.68,0.011427261082759196,0.10082747172450446,0.38546288699592424,-0.010631152192729712,-0.0026645479618303443,0.00013392502878237957
1.69,0.01173648800440602,0.10214933183158928,0.3846581137167959,-0.0097968404430302,-0.002542127128201502,0.00013204124919034984
1.7,0.012014759346338708,0.1032728019075349,0.38342768164056906,-0.009049221195145875,-0.002433343786069593,0.00013015476406821663
1.71,0.01228549758483348,0.10434047887527415,0.3818773906516526,-0.013062147059807874,-0.0031297520053189523,0.0001277778958965189
1.72,0.01253096731881724,0.10521672495152762,0.3700628985470189,-0.011095600262583421,-0.002813089412282745,0.00012613774259513785
1.73,0.01277919471132094,0.10613498267739163,0.3697909069089178,-0.010562443698089887,-0.0027385541492000757,0.00012427117403077857
1.74,0.013097920522507286,0.10745545346461938,0.3689299494524789,-0.00969770647402952,-0.0026072590985320616,0.0001225168119688462
1.75,0.013383613976739733,0.10857096233194558,0.36763871612777166,-0.008922633314717321,-0.002490524557277689,0.00012075652983709956
1.76,0.013661169868247822,0.10962846780732116,0.3660259512372477,-0.013053847529863693,-0.0032289226268727694,0.0001184791499140716
1.77,0.013910754009449286,0.11048292799697296,0.3538589426455019,-0.011022709945628331,-0.002891484383030837,0.0001169713260036884
1.78,0.014164343421297146,0.11138660358345209,0.3535771717011471,-0.010469165329800542,-0.0028112486401090054,0.00011522289824527439
1.79,0.014492502505396299,0.11270343575189856,0.3526961195632339,-0.009574139673718458,-0.0026707884522263613,0.00011358934034529974
1.8,0.014785490671208323,0.11380876604415863,0.35137935885387606,-0.008771764433716155,-0.00254584439669584,0.00011194664837606637
1.81,0.015069719392140843,0.1148539053639,0.3497385839779099,-0.013021607331254207,-0.0033275611511305015,0.00010975845699813653
1.82,0.015323128006363568,0.11568415155451678,0.3372531132939116,-0.010925972062767192,-0.0029686795978789053,0.00010837530052308566
1.83,0.015581905791510128,0.11657115493182713,0.336994394203316,-0.010352206235605907,-0.0028825588569595193,0.00010673654096211568
1.84,0.015919438505849343,0.11788222937840487,0.33612529772852895,-0.00942705451865303,-0.0027326411551038725,0.0001052157542069592
1.85,0.01621959954976014,0.11897529497737619,0.3348143068038212,-0.00859755245618914,-0.00259922796901699,0.0001036826140450595
1.86,0.01651036135435005,0.1200060048539911,0.3331760711944298,-0.012966302873881785,-0.0034255852813393243,0.00010157399609380616
1.87,0.01676730679622644,0.12080975752233603,0.3204023169445236,-0.01080630909064995,-0.0030445930671184874,0.00010030836691798372
1.88,0.017031103993281685,0.12167812738956424,0.320195689411662,-0.010212508562122576,-0.002952401683690417,9.877136354320739e-05
1.89,0.017377954414973112,0.12298145211187689,0.3193668683110218,-0.009257418404474034,-0.002792733575342524,9.735585250089994e-05
1.9,0.017685169903490505,0.12406029515167616,0.31808927307253043,-0.008400988030020944,-0.002650591227792988,9.592476002675328e-05
1.91,0.017982328032817643,0.12507464075564578,0.3164805136535165,-0.012888863142885634,-0.0035229034485693214,9.388678267983413e-05
1.92,0.018242523049305168,0.1258497669202538,0.3034450774208608,-0.01066469584077052,-0.0031191347632549536,9.273200954788643e-05
1.93,0.018511173421184232,0.12669766780448039,0.30331608570577373,-0.010051066458339385,-0.00302068673719042,9.128937606769677e-05
1.94,0.018867287439371452,0.12799137504716784,0.3025524224042897,-0.009066250317772879,-0.002850975660652502,8.997214243693715e-05
1.95,0.019181440512310716,0.12905416315017737,0.3013324675293916,-0.008183112907094054,-0.0026998445010251292,8.863608982577165e-05
1.96,0.0194848594384147,0.13005033541797772,0.2997767960977171,-0.012790268314717326,-0.0036194179072678023,8.666050208710442e-05
1.97,0.019748015610485115,0.13079484671260633,0.28650298585120026,-0.010502157620409335,-0.0031922096016529927,8.561033203938935e-05
1.98,0.020021354005415534,0.13162056625777574,0.28647396007386305,-0.009868923963829664,-0.003087319263972692,8.425517519085696e-05
1.99,0.020386677729378536,0.13290290988378362,0.2857971775327428,-0.008854618420618793,-0.0029072737448926963,8.302967955224703e-05
2.0,0.02070765158382684,0.13394793361078128,0.28465600141913683,-0.007945017243642707,-0.0027468952105297547,8.178211950648116e-05
2.01,0.021017195558454757,0.13492424675860815,0.28317397632093844,-0.012671547284977477,-0.0037150274737555696,7.986135310284879e-05
2.02,0.02128302205023705,0.1356362975999531,0.2696820752845497,-0.010319767348307318,-0.0032637200669105,7.890990324312614e-05
2.03,0.02156088305456383,0.13643824406106564,0.26977239702574707,-0.009667171878295253,-0.0031522026869594535,7.763579213239232e-05
2.04,0.02193536150852174,0.13770759712178338,0.26920132164320876,-0.008623636647451003,-0.002961533008861584,7.649591780444988e-05
2.05,0.022263038163862492,0.13873326760699412,0.2681572163609758,-0.007687835943397203,-0.002791650249672591,7.533072984127434e-05
2.06,0.02257857004326312,0.1396881568180991,0.26676659921065493,-0.012533774214535512,-0.003809629930527666,7.345790104730401e-05
2.07,0.022846772628985074,0.14036604263585606,0.25307411963382265,-0.010118641733949453,-0.0033335685081321716,7.259961266553026e-05
2.08,0.023128989483358828,0.14114274254496684,0.2533004729343702,-0.009446943723774992,-0.003215240825378166,7.140054999138954e-05
2.09,0.023512565559876547,0.1423975950143319,0.25285128248953015,-0.008374460427846852,-0.003013659618216267,7.034056889662819e-05
2.1,0.023846824876456313,0.14340244174897154,0.2519199385275783,-0.007412744159031681,-0.002834018042355984,6.925202757963125e-05
2.11,0.02416820519445667,0.14433446099949843,0.25063593664498285,-0.012378064212640188,-0.0039031241176609725,6.742093955373328e-05
2.12,0.024438485534666182,0.14497661648869842,0.23675785886467793,-0.009899936640619444,-0.0034016591247579787,6.665053460952826e-05
2.13,0.02472488928694297,0.145726712455288,0.2371344665164088,-0.009209410921296504,-0.003276339809321734,6.552092963071199e-05
2.14,0.02511750293239176,0.1469656690870208,0.2368209235470431,-0.008108281658283577,-0.003063562560081304,6.453547008422829e-05
2.15,0.025458221857314542,0.1479483378127172,0.23601566049080702,-0.007120952076213971,-0.0028739103048051207,6.351821509534226e-05
2.16,0.025785308120640504,0.1488561577944747,0.234851154132798,-0.012205568283908109,-0.0039954117314440225,6.172336033499682e-05
2.17,0.026057363260939895,0.14946115515009073,0.22080015188663538,-0.009664841759722247,-0.0034678996634431576,6.103580030925695e-05
2.18,0.026347782130327,0.15018340375337613,0.22133899729936957,-0.008955777310314687,-0.003335409709418786,5.997044342540579e-05
2.19,0.02674936973747974,0.15140518202207132,0.221172668304348,-0.007826323051811628,-0.003111155198844839,5.9054459765261006e-05
2.2,0.027096421752626637,0.15236443269159294,0.22050465119605178,-0.00681369910961069,-0.002911243530677291,5.8103467721398744e-05
2.21,0.02742906793402975,0.15324683878902012,0.21947040728775846,-0.012017467670636245,-0.004086398849474847,5.6340030275666115e-05
2.22,0.027702590000900675,0.15381338588207893,0.20525705874518962,-0.009414574727644232,-0.0035322028456253904,5.573047739843553e-05
2.23,0.027996848929617325,0.15450665561494992,0.2059680941712827,-0.008687273142358941,-0.003392365901237642,5.4724516224668725e-05
2.24,0.028407342913621368,0.15571008369762163,0.20595855477978375,-0.007529831996940379,-0.003156356570845532,5.387326021011722e-05
2.25,0.02876059766291489,0.15664478846051655,0.20543699662312065,-0.006492247641909315,-0.002945940219250438,5.2983818136100083e-05
2.26,0.029098653868855733,0.15750067874312212,0.2045418688112477,-0.011814967723170085,-0.004175997200849079,5.124767524616497e-05
2.27,0.02937332993870924,0.1580276171984918,0.19017485438865833,-0.009150374816988285,-0.003594487544782902,5.0711456107525835e-05
2.28,0.029671250308897085,0.15869088642192497,0.19106619529196678,-0.008405148680255338,-0.003447130183440901,4.9760372932371926e-05
2.29,0.030090578844914687,0.1598749011792744,0.19122122257186902,-0.0072200740563557585,-0.003199092437059064,4.8969366841873533e-05
2.3,0.03044990191863623,0.16078404235481125,0.19085357365611344,-0.00615787643563821,-0.002977929865865278,4.813704721864141e-05
2.31,0.030793214210304322,0.1616124255429674,0.19010468882640907,-0.011599291429431136,-0.004264125199620737,4.64247700920547e-05
2.32,0.031068726329469207,0.16209872868391817,0.17559097610586605,-0.008873496331758093,-0.0036546797319249426,4.5957341640307265e-05
2.33,0.031370125824527195,0.16273108355363552,0.17666908288305194,-0.008110667531484506,-0.0034996316682574346,4.505693216623623e-05
2.34,0.03179821272629186,0.16389472847433417,0.1769948340424321,-0.006898326232750589,-0.0032392961124465894,4.432194353255377e-05
2.35,0.03216346558258115,0.16477739647233203,0.1767869586899451,-0.005811873843707641,-0.0030071497333503234,4.354258084591082e-05
2.36,0.032511875929920435,0.16557738984304682,0.17618989105017135,-0.011371672730568284,-0.004350708759406392,4.185143430714589e-05
2.37,0.03278790126476187,0.16602216046934792,0.16153490701498185,-0.008585201831363817,-0.0037127132075063705,4.144835223386907e-05
2.38,0.03309259385589781,0.16662279279947012,0.16280475406915684,-0.007805099839064789,-0.0035498074624903952,4.05947055090428e-05
2.39,0.03352935857622377,0.16776521587366644,0.16330593325619702,-0.006565870123400209,-0.0032769090902661576,3.9911723433164446e-05
2.4,0.03390039858058077,0.168620607032266,0.16326227378016256,-0.005455530938507877,-0.003033545422788945,3.9181392154362616e-05
2.41,0.034253744930969575,0.169391434229893,0.16282120682831192,-0.011133349743375032,-0.004435681906758651,3.750933295156192e-05
2.42,0.03452995602878928,0.16979390220328572,0.14802899816146464,-0.008286755301529825,-0.0037685301376665014,3.716622245780126e-05
2.43,0.034837752068759935,0.1703621072381145,0.14949423093213454,-0.007489715446169713,-0.0035976031569799416,3.6355701916327585e-05
2.44,0.03528310980433283,0.17148255872803664,0.15017424395580292,-0.00622398507756301,-0.0033118814793309855,3.572091490541937e-05
2.45,0.03565979036988711,0.1723099730389921,0.1502979732492804,-0.005090134671480866,-0.0030570712616506497,3.50359088399948e-05
2.46,0.03601790681401311,0.17305096176659096,0.150015849698093,-0.01088555800201245,-0.004518987210715214,3.338158242581395e-05
2.47,0.03629397195690949,0.17341048138136417,0.13508923167648845,-0.007979415381695085,-0.0038220814124164787,3.309411135660074e-05
2.48,0.03660467836444324,0.1739456554472607,0.13675231230081408,-0.007165777141888678,-0.0036429731421472778,3.2323336892744925e-05
2.49,0.0370585402485378,0.17504348553243343,0.13761340994733473,-0.005873941461674172,-0.0033441722718797443,3.173311217052016e-05
2.5,0.03744071106080715,0.17584232422970802,0.13790657256151917,-0.004716961165696141,-0.003077690526967484,3.1089925116247835e-05
2.51,0.03780342808004933,0.1765529037969782,0.13778523353380479,-0.010629523822046133,-0.004600576045694578,2.9452660758100736e-05
2.52,0.03807901171509892,0.17686895091836852,0.12272592773143742,-0.0076644287486717245,-0.0038733268431042018,2.9216515084975553e-05
2.53,0.038392432234807955,0.1773705889371313,0.12458826969208303,-0.006834534085480485,-0.003685880766930858,2.848234609433627e-05
2.54,0.038854705602875406,0.17844524521262728,0.1256316801345747,-0.005516994127019841,-0.003373749459376278,2.7933210334264567e-05
2.55,0.039242212914282135,0.1792150082080557,0.12609532276997015,-0.0043372692334701,-0.0030953755208581167,2.732851799305585e-05
2.56,0.039609357694835035,0.17989470691662235,0.12613563594499055,-0.010366457879212997,-0.004680408704632559,2.5708322104572342e-05
2.57,0.03988412092556064,0.18016687587996127,0.11094439798853273,-0.0073430237455181895,-0.003922235216142149,2.5519183727428746e-05
2.58,0.04020005644927403,0.18063456872483008,0.11300648999679197,-0.006497215495492932,-0.0037262983580553365,2.4818703055128453e-05
2.59,0.04067064516364016,0.1816855935393713,0.11423254129283578,-0.005154376163448165,-0.0034005900131516545,2.430732448847533e-05
2.6,0.041063332144126996,0.18242587668790278,0.11486683288097765,-0.003952294199806271,-0.0031101075152658707,2.373796758033269e-05
2.61,0.041434728944578225,0.18307431904757143,0.11506881079981213,-0.01009754908399221,-0.0047584543789029165,2.2135515201103988e-05
2.62,0.04170833006979305,0.18330231930666074,0.0997455474660569,-0.007016404333118594,-0.003968784219571721,2.198904203197114e-05
2.63,0.042026579006569295,0.1837357509940074,0.10200706825003181,-0.006155024678570048,-0.003764207116134763,2.131954077416615e-05
2.64,0.04250538382760613,0.18476277861709245,0.10341530032320634,-0.004787293011043836,-0.0034246797463271996,2.0842712626040024e-05
2.65,0.0429030909590046,0.18547327080759013,0.10421964269369255,-0.0035632421007403057,-0.0031218765822695407,2.0305681155865107e-05
2.66,0.043278561519134034,0.18609017456927557,0.10458255154333074,-0.009823958821318935,-0.004834691021140671,1.8722305539805958e-05
2.67,0.04355065660657173,0.18627382710190155,0.08912642883274202,-0.006685744430164066,-0.004012960258544761,1.8614113822475535e-05
2.68,0.04387101528974709,0.18667277180944852,0.09158635190686937,-0.005809133460937525,-0.0037995969045911695,1.7973076933257385e-05
2.69,0.0443579342821257,0.18767552542181543,0.09317561993071877,-0.004416916989841896,-0.0034460130728994507,1.752770214037228e-05
2.7,0.04476049978498556,0.1883560054885547,0.09414874906354953,-0.0031712843138204574,-0.0031306813257354293,1.7020120770768392e-05
2.71,0.045139863764746824,0.18894117849721503,0.0946712081173473,-0.009546815612903981,-0.0049091051065662476,1.545780107465599e-05
2.72,0.04541010724812798,0.18908041196669112,0.0790807506945157,-0.006352182695378227,-0.004054758175225626,1.538344988529324e-05
2.73,0.04573237036892622,0.18944473088006175,0.08173744028283636,-0.005460677073730265,-0.0038324659467628072,1.476854254611734e-05
2.74,0.04622729933252863,0.19042301938942963,0.08350600904094563,-0.004044382295872253,-0.003464592679228423,1.4351619710264447e-05
2.75,0.04663455961530054,0.19107335284374027,0.08464608782787764,-0.0027775526662202022,-0.0031365285294071995,1.387073419531937e-05
2.76,0.04701763505403182,0.19162668971201002,0.08532616064371723,-0.009267210247889176,-0.004981691307800826,1.2332081287759377e-05
2.77,0.04728568034336432,0.1917215363977931,0.0695993422894503,-0.0060168177941717586,-0.004094180887950755,1.2287059153183966e-05
2.78,0.04760964140151751,0.19205117438581,0.07245064132632706,-0.005110749531742346,-0.0038628204458846637,1.1696113866583066e-05
2.79,0.04811247431786396,0.1930048890719238,0.07439627133010163,-0.003670780500331071,-0.003480429122445549,1.1304724397827705e-05
2.8,0.048524264439275475,0.1936250246623028,0.07570097427134215,-0.002383135054587527,-0.0031394327357769257,1.0847889034289369e-05
2.81,0.04891086822631473,0.19414650326926575,0.07653625168302369,-0.008986191416184338,-0.00505245209746289,9.336129471386398e-06
2.82,0.049176368322276925,0.19419709478024627,0.060670578214683246,-0.0056807041806590415,-0.004131238963733269,9.3158430339229e-06
2.83,0.049501820085428444,0.19449207690896975,0.06371388810322287,-0.004760399534050405,-0.0038906741418508984,8.746847407059864e-06
2.84,0.050012449571172624,0.1954211879034995,0.06583391407133377,-0.003297156577682905,-0.003493540369497931,8.378143810413051e-06
2.85,0.05042860370785274,0.1960111540125209,0.06730050412073751,-0.0019890715998816108,-0.003139415769255632,7.942809863982884e-06
2.86,0.05081855205649882,0.1965008318408068,0.06828817976867185,-0.008704761868012697,-0.005121397292060679,6.461768101226773e-06
2.87,0.0510811601610317,0.1965073946291751,0.052280764428758175,-0.005344848415328457,-0.004165950137378292,6.46153275144483e-06
2.88,0.051407895125289704,0.19676782252231462,0.05551311783591473,-0.00441062690446327,-0.003916047817825202,5.912617938724635e-06
2.89,0.05192621288566818,0.1976723751392906,0.057804519677517874,-0.0029245054781622437,-0.00350395128967572,5.563813197719087e-06
2.9,0.052346564797783185,0.19823227602716598,0.05942991815999221,-0.0015963513502842382,-0.0031365062162685875,5.147518263092918e-06
2.91,0.05273967371582228,0.19869028635072228,0.060566856951993486,-0.008423875113060341,-0.005188543549841976,3.7015971931695224e-06
2.92,0.05299904383188406,0.19865313704431342,0.04441448869130227,-0.005010206028741277,-0.004198338789586591,3.716629585459213e-06
2.93,0.05332685467710624,0.19887918510930191,0.04783261520202586,-0.004062379580025085,-0.003938968768861686,3.186059362145573e-06
2.94,0.053852751952920136,0.19975929603538445,0.05029208253404249,-0.0025537692506127745,-0.0035116931125468596,2.8544173724020747e-06
2.95,0.05427713544163548,0.2002893079505741,0.052072932135160954,-0.0012059095359433273,-0.003130738873962554,2.4547756263089338e-06
2.96,0.05467322119246526,0.20071585588893326,0.053355732205773165,-0.008144432663335982,-0.005253913834358315,1.048935550095405e-06
2.97,0.05492900870686379,0.20063539647119377,0.03705493767824919,-0.0046776789325834785,-0.0042284353954861065,1.0743479099456175e-06
2.98,0.055257688741094935,0.2008273079975864,0.04065532280606021,-0.0037165511469361835,-0.0039594702437461635,5.605083514338696e-07
2.99,0.055791056743585005,0.20168316136465192,0.043279313182154056,-0.0021858347129602566,-0.003516802862255616,2.4333535676107006e-07
3.0,0.05621930609532935,0.20218352853595967,0.04521203482710234,-0.0008186253708736377,-0.003122154178229454,-1.4197133580284982e-07
3.01,0.056618185644199265,0.2025788869935985,0.04663708295993274,-0.007867281815462604,-0.005317536854547361,-1.5022351836205095e-06
3.02,0.05687004788866232,0.20245559984727324,0.03018418233580178,-0.0043481133712705905,-0.004256275954056352,-1.4714390564953726e-06
3.03,0.05719939147670605,0.2026136830082792,0.03396312127534884,-0.003373978915351971,-0.003977590870284034,-1.970049313107693e-06
3.04,0.05774012180609009,0.2034455263638657,0.03674791184238302,-0.0018215316599283647,-0.0035193227781460355,-2.2754123297727003e-06
3.05,0.058172072218524995,0.2039165568931689,0.038828755890563116,-0.00043532038988167913,-0.0031107976207472017,-2.648642495954361e-06
3.06,0.058573563660110906,0.2042810624033886,0.04039227771812648,-0.007593213960708489,-0.005379446491157075,-3.957323733220823e-06
3.07,0.05882116044603203,0.204115505256508,0.023783434670576753,-0.004022298400168723,-0.004281901407913182,-3.9262508659207925e-06
3.08,0.05915096341860271,0.2042401290217044,0.027737079690837163,-0.0030354425176015378,-0.003993374073259484,-4.411029799699731e-06
3.09,0.05969894846174356,0.20504826921702302,0.03067881429785757,-0.0014616315909255374,-0.0035192997306629174,-4.707213818603724e-06
3.1,0.06013443644838773,0.20549033089650726,0.03290390594656856,-5.675730193230202e-05,-0.0030967191637268653,-5.0705736834760585e-06
3.11,0.06053835941152025,0.20582437939481446,0.034602010536843864,-0.007322963404652107,-0.005439681218340165,-6.321179736940442e-06
3.12,0.06078135353550923,0.20561718018341502,0.017833277148326943,-0.0037009648703508406,-0.004305357061914858,-6.295048891774052e-06
3.13,0.061111413574947704,0.20570877017261902,0.021957680296225135,-0.002701663008440962,-0.004006867493280599,-6.767299735294571e-06
3.14,0.06166654687982803,0.20649356919311135,0.02505241081252052,-0.0011068469353409075,-0.0035167846404727736,-7.056913543715867e-06
3.15,0.06210541064973624,0.20690708526643897,0.027417790988693014,0.0003163606640925593,-0.003079972660041362,-7.412563600478661e-06
3.16,0.0625115866770623,0.20721112780952566,0.02924651035129955,-0.00705720667296392,-0.005498283528252485,-8.598141683501037e-06
3.17,0.06274964439369202,0.20696297949540643,0.012313867152613511,-0.003384784894676855,-0.004326692008053009,-8.582282878978173e-06
3.18,0.0630797613948228,0.20702201379063645,0.016605018018367446,-0.002373302441047811,-0.004018122413730392,-9.043222234413646e-06
3.19,0.0636419380182704,0.20778388454711916,0.019848741246164536,-0.0007578307478026583,-0.0035118319077519426,-9.32885746034799e-06
3.2,0.0640840178291191,0.20816932943812372,0.022350402417714577,0.0006833899497453802,-0.0030606152854221664,-9.678918343040325e-06
3.21,0.06449227072859165,0.20844386789675706,0.02430572699552158,-0.006796562275340583,-0.005555299365502969,-1.0792082302284477e-05
3.22,0.0647250621898729,0.20815552326358677,0.007205118137676436,-0.0030743717658128634,-0.004345958563107788,-1.0791935053467987e-05
3.23,0.06505503859246392,0.208182528200207,0.01165897725030618,-0.0020509638884986504,-0.004027193202064676,-1.124270050561704e-05
3.24,0.0656241554204337,0.20892193030752626,0.015047667503154116,-0.0004151768422111337,-0.0035044988576169857,-1.1526935889583143e-05
3.25,0.06606929390265415,0.20927982533835987,0.017681585546824863,0.0010437464255090168,-0.003038706988441929,-1.18734935863499e-05
3.26,0.06647945007026007,0.20952540808416575,0.019759494769289176,-0.0065415908961588545,-0.005610777577352385,-1.290645146311685e-05
3.27,0.06670664972879131,0.2091976745377533,0.0024868595005500538,-0.0027702802935811463,-0.004363211724599084,-1.292756184839494e-05
3.28,0.06703629082178975,0.20919322050394484,0.007099387602238494,-0.001735191877445751,-0.004034136770757105,-1.3369219092327548e-05
3.29,0.06761224686006873,0.20991065605990844,0.010629025197772535,-7.942033054381711e-05,-0.0034948452067389245,-1.365462404530841e-05
3.3,0.06806028931091723,0.21024156518223425,0.013391187074773825,0.0013969047520820412,-0.0030143099630781786,-1.3999734489613298e-05
3.31,0.06847217802315175,0.21045878279113417,0.015587676749362345,-0.006292795977782045,-0.00566476938462613,-1.4944316641817055e-05
3.32,0.06869346499939477,0.2100925171949486,-0.0018610234064908582,-0.002473007526661489,-0.004378508649649893,-1.4992333302975864e-05
3.33,0.06902257919487453,0.21005721444866676,0.002906160290194748,-0.0014264731985269936,-0.004039012062286309,-1.5425882803334733e-05
3.34,0.06960527582994952,0.21075322385100126,0.006572756348077746,0.0002489614695602481,-0.003482932555289907,-1.5715020298454525e-05
3.35,0.07005607047722018,0.2110577494079946,0.009459184333593385,0.0017423973808995902,-0.002987488147771104,-1.606071337546273e-05
3.36,0.0704695241523362,0.21124723039889215,0.011770290022639074,-0.006050624660712217,-0.005717327877441732,-1.6908401007936463e-05
3.37,0.07068458256542787,0.21084333396981236,-0.005858467240216214,-0.0021829938221353483,-0.004391908160520715,-1.6989070189296842e-05
3.38,0.07101298164266523,0.21077782850653648,-0.0009405934164874452,-0.0011252380566820206,-0.004041879561715356,-1.741545338819619e-05
3.39,0.07160232287174717,0.21145298630842468,0.002859024554879852,0.0005695477956110251,-0.0034688239075374118,-1.7710882233227402e-05
3.4,0.07205572110695335,0.21173176485256295,0.005865797199078315,0.00207981323134867,-0.0029583067540680844,-1.8059165237573764e-05
3.41,0.07247057553540215,0.2118941714912559,0.008287614470248172,-0.005815469043724964,-0.005768507539015319,-1.8801119192283493e-05
3.42,0.07267909479753698,0.21145358476970522,-0.009525125399534318,-0.0019006242255294216,-0.00440347027976149,-1.8920278922847663e-05
3.43,0.07300659411658972,0.2113585542540264,-0.004460459983590681,-0.0008318615238689679,-0.004042800839613452,-1.9340384012861516e-05
3.44,0.07360248674793957,0.21201346509458485,-0.000531685877547261,0.0008819729071622017,-0.003452583223617908,-1.964466054989681e-05
3.45,0.07405834332827044,0.21226716327815698,0.002591584049582707,0.002408796082495246,-0.002926831827180068,-1.9997521131004444e-05
3.46,0.07447443787257646,0.2124031874528587,0.0051202858131205176,-0.005587667726796199,-0.0058183638000532546,-2.062461079314733e-05
3.47,0.07467611294761922,0.21192688538895776,-0.012880277751037283,-0.0016262301238677774,-0.00441325579718211,-2.0788184313453048e-05
3.48,0.075002531633242,0.21180303516554755,-0.0076726360731527166,-0.0005466652566633642,-0.0040418381273404965,-2.1202851592256593e-05
3.49,0.07560488545610422,0.21243832978190547,-0.003618485351353229,0.0011859242963520823,-0.0034342750043065136,-2.151853086994616e-05
3.5,0.07606305867699503,0.21266764034244545,-0.0003824764149840121,0.0027290427168795333,-0.0028931298400753794,-2.1877939499944076e-05
3.51,0.0764802364413425,0.21277799953756116,0.0022493747664498187,-0.005367507599866267,-0.005866952625524766,-2.2380771682153513e-05
3.52,0.0766747680686769,0.21226698669551958,-0.015942754316711216,-0.0013600911346528313,-0.004421325870159657,-2.2594760214615008e-05
3.53,0.07699992916498921,0.21211504590223917,-0.010595855037820456,-0.0002699194417534229,-0.004039053926046568,-2.3004787037655847e-05
3.54,0.07760865709076359,0.21273137725208446,-0.00642000784978336,0.0014811406789947666,-0.003413963909948614,-2.3334423500480382e-05
3.55,0.07806900892887159,0.21293701509994545,-0.003074916214984569,0.003040300853161063,-0.002857267322101303,-2.3702335499256406e-05
3.56,0.07848711689933952,0.21302244848420138,-0.00034354677325154626,-0.005155225841250348,-0.005914330134976076,-2.40712831729106e-05
3.57,0.07867421178406331,0.21247775439270367,-0.01873087146719854,-0.0011024371945987464,-0.004427741658181124,-2.4341758130974417e-05
3.58,0.07899794238153124,0.21229847219139675,-0.013248325316794762,-1.8449333494840493e-06,-0.004034510650135468,-2.474790347851885e-05
3.59,0.0796129605564605,0.21289651168598933,-0.008954351571333063,0.0017674098020128716,-0.0033917144141337834,-2.509405121633565e-05
3.6,0.08007535678415667,0.21307921012236886,-0.0055037216739606265,0.0033423669031781133,-0.002819310522558135,-2.5472408367493585e-05
3.61,0.08049424594147592,0.21314047476073128,-0.0026763508742533304,-0.004951012090685438,-0.0059605522569662235,-2.569763911753882e-05
3.62,0.08067361691274644,0.21256314942541543,-0.021262379377162688,-0.0008534508132569067,-0.004432563991969535,-2.6030733845432683e-05
3.63,0.08099574824699252,0.2123572913598215,-0.015647680129404762,0.00025738445207218355,-0.004028270305405289,-2.6433722520391416e-05
3.64,0.08161697613841279,0.21293772523522936,-0.011239031039167457,0.002044566101513919,-0.003367590492174361,-2.6798935120263484e-05
3.65,0.08208128641239154,0.21309823230120095,-0.007686286735975045,0.0036350835874212747,-0.0027793251091451877,-2.718966691060242e-05
3.66,0.08250081181694624,0.21313609951223444,-0.004766309622539211,-0.004755010763567289,-0.006005674417704914,-2.7261170998869645e-05
3.67,0.08267217795551729,0.2125272091035857,-0.023554419961158146,-0.0006132694583351576,-0.004435853077057437,-2.766307212931927e-05
3.68,0.08299254548156665,0.2122955535982518,-0.017810937329443277,0.0005076395165420843,-0.004020394201612692,-2.806359860225179e-05
3.69,0.0836199059385534,0.21285907942814042,-0.013290938447596545,0.002312488244011416,-0.0033416553439993895,-2.8450428643066768e-05
3.7,0.08408600386172749,0.21299815440800618,-0.009639376692405222,0.003918337441045103,-0.0027373759007677835,-2.8855453157629016e-05
3.71,0.08450602471447854,0.2130134062677813,-0.006630060234158464,-0.004567323474740964,-0.006049751263520288,-2.8763071087666395e-05
3.72,0.08466911145137146,0.2123740289972087,-0.025623494117610335,-0.00038198804141952557,-0.004437668231249227,-2.9240009601038875e-05
3.73,0.08498755489368126,0.212117364010167,-0.019754467963650768,0.0007488331677747175,-0.004010942698797754,-2.963874151863169e-05
3.74,0.08562097418313153,0.212664687373465,-0.015126314245605954,0.0025710965812676323,-0.0033139711506857874,-3.0049739747607184e-05
3.75,0.08608873734411437,0.2127830974529843,-0.01137910039972212,0.004192056240472589,-0.002693526633818982,-3.04709642510188e-05
3.76,0.08650911702240416,0.2127765234660739,-0.008283578836199013,-0.004388011542268241,-0.006092836416409343,-3.0204413736715136e-05
3.77,0.08666365621190497,0.21210774566016166,-0.0274854366111299,-0.00015966147492813,-0.004438067655055589,-3.076265580008303e-05
3.78,0.08698001959059343,0.21182686549492402,-0.021493973569874925,0.0009809178414733801,-0.00399997498636702,-3.1160237173458146e-05
3.79,0.08761942741269957,0.21235869681057729,-0.016760725571884905,0.002820350547032156,-0.0032845988635217135,-3.159795140212801e-05
3.8,0.08808873740107082,0.21245721390061867,-0.012920889780332345,0.004456206378404131,-0.0026478397607380593,-3.203727263602427e-05
3.81,0.08850934347437445,0.2124296078359622,-0.009742161743986344,-0.004217098543787432,-0.006134982261603063,-3.1586174884950324e-05
3.82,0.0886550734403857,0.21173252022110844,-0.029155399410285554,5.369272661473901e-05,-0.004437108233887871,-3.223201254521143e-05
3.83,0.08896920507900363,0.21142822250797,-0.023044469941169154,0.0012038828852106228,-0.003987548893644289,-3.2629066634377604e-05
3.84,0.0896145345592736,0.21194527403178842,-0.018209051582118718,0.0030602460216411567,-0.00325359802422786,-3.309604038977605e-05
3.85,0.09008527696335866,0.21202467177294793,-0.014279486997281765,0.004710790212703723,-0.002600376279396565,-3.3555344615020554e-05
3.86,0.09050598118676145,0.21197682867790668,-0.011020413559492681,-0.004054572900375184,-0.006176239765809963,-3.290924984650218e-05
3.87,0.09064264674812916,0.21125252287590435,-0.030647840567610274,0.00025809182557365046,-0.004434845370549829,-3.364899164670923e-05
3.88,0.09095439925943527,0.2109256057247766,-0.02442027774662847,0.0014177519279773318,-0.0039737207303697075,-3.40461235572971e-05
3.89,0.09160558692530851,0.21142858873002268,-0.019485475419855902,0.0032908126880703686,-0.0032210266147451616,-3.4544894522581075e-05
3.9,0.09207765130817003,0.21148963966433065,-0.015468936993556781,0.0049558434122576964,-0.002551195591655158,-3.502605733380135e-05
3.91,0.09249832959884463,0.21142235306359503,-0.012132240989615184,-0.00390039046517145,-0.006216658324595712,-3.4174469460566126e-05
3.92,0.09262568207310529,0.21067191830148602,-0.031976519601073505,0.0004535852426673474,-0.00443133284638059,-3.501443104389301e-05
3.93,0.09293491233006157,0.21032317763736152,-0.02563501883656727,0.0016225802571114352,-0.003958545155448985,-3.5412230052266176e-05
3.94,0.09359189806726342,0.2108127997668685,-0.02060348101906584,0.003512111400644841,-0.0031869409348344027,-3.59453283292541e-05
3.95,0.09406517792812097,0.2108562727043406,-0.016502585999944586,0.005191432320494777,-0.002500355389288004,-3.645021426788704e-05
3.96,0.09448571032494302,0.210770331970922,-0.01309085227774176,-0.0037544770963697906,-0.006256285637189049,-3.538261467881602e-05
3.97,0.0946035075131968,0.20999485202510826,-0.03315449760066258,0.0006402519607520488,-0.004426622709251341,-3.632910943986355e-05
3.98,0.09491007660220041,0.209625079090614,-0.02670161727280629,0.0018184522219576904,-0.003942075072118938,-3.672815106242433e-05
3.99,0.09557280359839826,0.21010204190097248,-0.0215758556265655,0.003724231585247127,-0.0031513955056085875,-3.729809728657105e-05
4.0,0.09604719631753356,0.21012869945602475,-0.017393084235095557,0.0054176513549092364,-0.0024479115653556222,-3.782855927773596e-05
4.01,0.09646746692487662,0.21002488737931202,-0.013908760791991881,-0.0036167311965045745,-0.006295167606889886,-3.6534429667731725e-05
4.02,0.09657547308070114,0.2092254377306091,-0.03419414191796477,0.0008181979684387924,-0.004420765186521054,-3.759375950586784e-05
4.03,0.0968792462426038,0.208835416783959,-0.02763230494196023,0.0020054786812888524,-0.0039243615476075005,-3.799460732832415e-05
4.04,0.09754766091565892,0.20930041345401662,-0.02241469577057842,0.003927288687552079,-0.0031144429970436384,-3.8603910665203114e-05
4.05,0.09802306768613711,0.2093110097822759,-0.01815239297542348,0.005634620458616173,-0.0023939181490449423,-3.916178930199663e-05
4.06,0.09844296460656543,0.2091901003120622,-0.014597793054349495,-0.003487026202218725,-0.006333348265174846,-3.76306335032303e-05
4.07,0.09854095038883126,0.2083677455255728,-0.03510713483478867,0.0009875537588034675,-0.004413808620993018,-3.8809079728128797e-05
4.08,0.09884179694635842,0.20795825171227023,-0.02843863061485763,0.0021837945092761145,-0.0039054537553103873,-3.9212287010075635e-05
4.09,0.0995158488613368,0.20841196495147152,-0.023131417243860142,0.004121421683590984,-0.003076134177465752,-3.9863443060307404e-05
4.1,0.09999217461004184,0.2084072436503437,-0.01879179539088227,0.005842482617762726,-0.002338427261956471,-4.0450565758347256e-05
4.11,0.10041158986298648,0.20826999983847294,-0.015169099647494022,-0.003365213010866083,-0.006370869717550862,-3.867193053477654e-05
4.12,0.10049933227659902,0.2074257911610644,-0.03590448521606504,0.001148471896294699,-0.004405799427882462,-3.9975744969705034e-05
4.13,0.10079712555288722,0.20699758856435047,-0.029131472629728705,0.002353556172659256,-0.003885398937486337,-4.0381856039687065e-05
4.14,0.10147676732810695,0.20744068868983057,-0.023736768248738827,0.004306790664823338,-0.003036517883004304,-4.1077344677704476e-05
4.15,0.10195392062567477,0.2074213808977987,-0.01932190976106085,0.006041401456515816,-0.002281489093816455,-4.169552472115605e-05
4.16,0.10237275005764435,0.20726855300301494,-0.015633169603290753,-0.0032511223323790873,-0.006407772109200624,-3.965901949591288e-05
4.17,0.10245003238359973,0.20640352618950253,-0.03659654339571716,0.0013011246628821466,-0.004396782070810282,-4.109441581971978e-05
4.18,0.10274464960893792,0.20595736605844017,-0.029721053920184204,0.002514939389731561,-0.0038642423864814093,-4.1503967275496684e-05
4.19,0.10342983681507767,0.20639050924975422,-0.02424084485141975,0.004483574507887295,-0.002995641005014023,-4.2246250445764416e-05
4.2,0.10390772977666995,0.2063573319177614,-0.01975270585319322,0.006231558919357731,-0.002223151895617904,-4.289728594480971e-05
4.21,0.10432587296327345,0.2061896557026266,-0.015999846780800908,-0.003144566956764106,-0.006444093608472873,-4.059260143706311e-05
4.22,0.10439248467775109,0.20530482904290714,-0.037193018158632185,0.0014457017925712306,-0.00438679905486185,-4.2165746801527465e-05
4.23,0.10468380689160339,0.20484144818921912,-0.03021695949456671,0.002668136879859743,-0.003842027442526127,-4.2579268530023006e-05
4.24,0.10537449794095766,0.2052652749284789,-0.024653109100825077,0.004651968637323808,-0.0029535484935130003,-4.337078802243123e-05
4.25,0.10585304612120705,0.20521892925673413,-0.020093523076525344,0.006413153048580321,-0.0021634619882380203,-4.405646080120496e-05
4.26,0.10627040626196016,0.20503712446551248,-0.016278348731191272,-0.0030453439294129926,-0.006479870406313197,-4.147338655554281e-05
4.27,0.10632614294847631,0.20413349701486894,-0.03770299567662505,0.0015824083016184312,-0.004375890934797696,-4.3190393510606924e-05
4.28,0.10661405489303943,0.2036536163907421,-0.030628155833767323,0.0028133562104957683,-0.0038187955061994424,-4.360840954145717e-05
4.29,0.1073102109250268,0.20406875004930214,-0.024982408568519077,0.004812182887841432,-0.002910283374736008,-4.4451584766055035e-05
4.3,0.10778933320632067,0.20400992011615493,-0.02035309051962031,0.006586395863157825,-0.0021024637846444407,-4.517365919838194e-05
4.31,0.1082058170137623,0.2038146890992465,-0.016477286628457932,-0.0029532366280843082,-0.006515136729783499,-4.230209999641138e-05
4.32,0.10825048026796846,0.20289323913291746,-0.03813496025628638,0.0017114624201298636,-0.004364096336570696,-4.4169018751578385e-05
4.33,0.10853487027895348,0.20239756255424624,-0.030963011852236377,0.0029508177470149504,-0.0037945860637286772,-4.459204795791305e-05
4.34,0.1092364550384084,0.20280460816701762,-0.02523699738077312,0.004964439471087951,-0.0028658867809860226,-4.54892737374363e-05
4.35,0.10971607351611956,0.20273395969661046,-0.020539548302167532,0.006751511343615316,-0.0020401998238856575,-4.624949554685045e-05
4.36,0.11013159110007109,0.20252598622483298,-0.016604687296251086,-0.0028680167369580485,-0.006549924867898628,-4.307948669603326e-05
4.37,0.1101649884305278,0.20158766986244636,-0.038496816117117305,0.0018330936292195203,-0.0043514519903837135,-4.510229774269529e-05
4.38,0.11044574832169696,0.20107688290638137,-0.031229320782699688,0.003080752709237324,-0.003769436723374758,-4.553085440215241e-05
4.39,0.11115272803702281,0.20147642608714378,-0.02542455870724325,0.0051089710504503075,-0.0028203979910507255,-4.648449879913531e-05
4.4,0.1116327678990503,0.20139460539359,-0.020660470099187478,0.006908733526091861,-0.00197671081514996,-4.7284593838064385e-05
4.41,0.11204723264823802,0.2011745536167897,-0.01666801548338981,-0.002789446114535155,-0.006584265208082171,-4.38063153386648e-05
4.42,0.11206917737371924,0.2002203036433059,-0.03879591023547846,0.0019475408065499512,-0.004337992773611986,-4.599092245404284e-05
4.43,0.11234620231920234,0.19969507269013143,-0.03143432330432461,0.0032034013371639216,-0.003743383261247888,-4.6425516682671084e-05
4.44,0.11305854557663864,0.20008767870560717,-0.025552227782554837,0.0052460189261088796,-0.0027738544795469925,-4.7437918876344866e-05
4.45,0.11353893498072809,0.19999531178371832,-0.020722886198143442,0.007058304707528353,-0.0019120356902799385,-4.827959189857186e-05
4.46,0.11395226344468323,0.1997638253414813,-0.016674197524935153,-0.0027172785534305896,-0.006618186281652085,-4.448338149417213e-05
4.47,0.11396257458495818,0.1987945502124333,-0.03903905589908163,0.0020550504818436614,-0.004323751762017787,-4.683560514441056e-05
4.48,0.11423576300378935,0.19825552163066362,-0.03158473106168458,0.0033190111672571814,-0.0037164596750030323,-4.727674321546752e-05
4.49,0.114953440616683,0.19864173462003087,-0.025626615602902802,0.005375831331396342,-0.0027262919736683014,-4.835021144220383e-05
4.5,0.11543411057135522,0.19853942637593214,-0.020733307515286015,0.007200473762768696,-0.0018462116632379838,-4.923514488115641e-05
4.51,0.11584622233495878,0.1982971276559553,-0.016629644967736112,-0.0026512614311983464,-0.006651714816836971,-4.5111510002966686e-05
4.52,0.11584472450532068,0.1973137106681122,-0.03923255654569857,0.0021558752028867515,-0.0043087602877892525,-4.763708115944516e-05
4.53,0.11611397793875877,0.1967615101416964,-0.03168675082321215,0.0034278354195477648,-0.003688698243970068,-4.808526571865e-05
4.54,0.11683696282349665,0.1971418524671087,-0.025653832942396093,0.0054986618404957235,-0.0026777445159140824,-4.92220752881097e-05
4.55,0.11731784706120463,0.19703018609651402,-0.020697749647524688,0.007335494573370493,-0.0017792742951297054,-5.0151928052629443e-05
4.56,0.11772866462589349,0.1967776756328643,-0.016540278906518324,-0.0025911372523299524,-0.006684875797938778,-4.56915566719087e-05
4.57,0.11771518792669244,0.19578097424810537,-0.039382230170303956,0.0022502720115778916,-0.004293048003045703,-4.8396111051706095e-05
4.58,0.11798041092053735,0.1952162062335283,-0.03174610853307058,0.003530131494921614,-0.003660129594386839,-4.8851841239967156e-05
4.59,0.1187086779672053,0.1955911779727426,-0.025639514724673518,0.005614767886607933,-0.002628244531495436,-5.005423263776387e-05
4.6,0.11918971282220969,0.1954707144591339,-0.020621757030880872,0.007463624567048445,-0.001711257563504592,-5.103063893584234e-05
4.61,0.11959916148357452,0.19520857045152162,-0.01641155414233708,-0.002536645082397251,-0.0067176925293582785,-4.622440934251824e-05
4.62,0.11957354139058296,0.19419941579057465,-0.03949343334141986,0.0023385010287675046,-0.004276642947562466,-4.9113482081217694e-05
4.63,0.119834641377492,0.19362266309608245,-0.03176807368276968,0.0036261595811435425,-0.0036307827685134906,-4.957725357517197e-05
4.64,0.12056816732219922,0.1939927416472198,-0.025588844145829626,0.005724409388951636,-0.002577822899224571,-5.084743066155257e-05
4.65,0.12104929160955402,0.19386401938548126,-0.020510427276576593,0.007585123365927093,-0.0016421939347700332,-5.187199886137616e-05
4.66,0.12145729933715765,0.19359279735065016,-0.016248483305503214,-0.0024875218760765545,-0.006750186703320384,-4.671098839037254e-05
4.67,0.12141937659471136,0.19257199381783607,-0.039571085643785864,0.002420824145907957,-0.004259571619583647,-4.9790009152372907e-05
4.68,0.12167626377457275,0.19198381729701453,-0.03175748336303741,0.003716181365484619,-0.003600685296521885,-5.026231413274774e-05
4.69,0.12241502707593943,0.19234945709989404,-0.025506576832867722,0.005827847486289633,-0.0025265090248086297,-5.1602442445304195e-05
4.7,0.12289618197075525,0.1922129916476223,-0.020368434974216143,0.007700251541139914,-0.0015721144386661398,-5.2676753982075256e-05
4.71,0.12330267928878369,0.19193322417287995,-0.01605566094298183,-0.002443503701387753,-0.006782378470231906,-4.715224671186187e-05
4.72,0.12325229980181263,0.1909015492185251,-0.039619693303905024,0.0024975038209481652,-0.00424185904869487,-5.0426535241122204e-05
4.73,0.12350488702850271,0.19030248757712087,-0.0317187661380558,0.00380045885125128,-0.0035698632701594304,-5.090786229811939e-05
4.74,0.12424886774331512,0.19066411994894672,-0.025397064433718697,0.0059253433741314285,-0.00247433091557686,-5.232006746551376e-05
4.75,0.12472999666307549,0.19052040386213775,-0.020200055672603412,0.007809269470784171,-0.001501048743859596,-5.3445675801404306e-05
4.76,0.12513491653459718,0.19023260047990043,-0.015837287037356873,-0.0024043268630274638,-0.006814286510724119,-4.7549169252027386e-05
4.77,0.12507193126287675,0.18919080448598358,-0.039643372744535554,0.002568801975402324,-0.00422352886984439,-5.102393136359042e-05
4.78,0.1253201339307397,0.1885813741830944,-0.03165596542231697,0.0038792532750291323,-0.0035383414172996653,-5.151476534807345e-05
4.79,0.12606931359487872,0.18893940725184244,-0.025264278171732713,0.006017157242300682,-0.0024213152557812593,-5.3001131620510765e-05
4.8,0.12655036208231163,0.18878891003826226,-0.02000918883027225,0.007912436297807522,-0.0014290252338218115,-5.4179561264113085e-05
4.81,0.12695363979631225,0.18849355718719707,-0.01559719006394289,-0.0023697289280922677,-0.006845928108528357,-4.7902772124496166e-05
4.82,0.12687790465204518,0.1874423634706801,-0.039645873926019704,0.002634978989115364,-0.004204603397698951,-5.158309613491105e-05
4.83,0.1271216405857034,0.18682305872097515,-0.03157276243115348,0.003952824121073862,-0.0035061431765920047,-5.208391796364876e-05
4.84,0.127876002094518,0.18717787744204628,-0.02511183147646534,0.006103547309189756,-0.002367487481710507,-5.364648686463767e-05
4.85,0.1283569177074062,0.18702104560341937,-0.019799380659435428,0.00801000898404805,-0.0013560710822602476,-5.4879232455573176e-05
4.86,0.1287584907669337,0.18671860668284523,-0.015338849763679718,-0.0023394496578310886,-0.006877319223434206,-4.821410137163652e-05
4.87,0.1286698665137198,0.1856587116089159,-0.039630602515217106,0.0026962927889382675,-0.004185103700621286,-5.2104954964634945e-05
4.88,0.12890905586149248,0.1850300044670128,-0.03147249859836165,0.004021428228978564,-0.003473290771522106,-5.2616241387121994e-05
4.89,0.12966858335794473,0.18538197073647567,-0.0249430023302466,0.006184768948744417,-0.0023128718559565662,-5.4257010490153924e-05
4.9,0.13014931555754838,0.18521922788838907,-0.019573846294917985,0.008102241456392401,-0.0012822123274665604,-5.554553595342407e-05
4.91,0.13054912357229886,0.18491014340371592,-0.01506541899232161,-0.0023132318493372783,-0.006908474563675753,-4.848423141082134e-05
4.92,0.1304474757282681,0.18384221659228928,-0.03960064173469391,0.002752998027268175,-0.004165049673652888,-5.259045893237241e-05
4.93,0.13068204085808777,0.18320455710485462,-0.03135819731880929,0.0040853189905141,-0.0034398052832888075,-5.311268226645744e-05
4.94,0.13144671962006527,0.18355400995595517,-0.02476075479762585,0.006261073906000819,-0.002257491540265278,-5.4833604099111346e-05
4.95,0.13192721966731602,0.18338575702658844,-0.019335491039385033,0.008189383840809892,-0.0012074739450396643,-5.617934187307931e-05
4.96,0.13232520425010552,0.1830704448102516,-0.014779745036719305,-0.002290822091285451,-0.006939407657183545,-4.871426320956733e-05
4.97,0.13221040299327136,0.18199512942462803,-0.039558773785586254,0.0028053453462347994,-0.004144460109975721,-5.3040583385000844e-05
4.98,0.1324402683922088,0.18134894588239803,-0.031232584767337812,0.004144745631376071,-0.003405706721993659,-5.357421122786011e-05
4.99,0.13321008472733098,0.18169620173091872,-0.024567759879801088,0.006332709596851309,-0.0022013686664931783,-5.537719230500232e-05
5.0,0.1336903055781935,0.1815228172419303,-0.019086931288825326,0.00827168177988888,-0.001131879918528163,-5.678154264608117e-05
5.01,0.13408641024559298,0.18120167273094623,-0.014484390185032225,-0.002271971437943627,-0.006970130921218849,-4.890532223001219e-05
5.02,0.133958330321704,0.18011958587527133,-0.03950749999148684,0.0028535807232062758,-0.004123352770404637,-5.345632629427756e-05
5.03,0.1341834225010441,0.17946528509060755,-0.031098110220284525,0.004199952573474239,-0.003371014095716912,-5.400182121468213e-05
5.04,0.13495836364174618,0.17981063807015474,-0.024366415729559776,0.006399918487631622,-0.0021445244052667573,-5.5888721201614295e-05
5.05,0.13543825985118385,0.1796324784630876,-0.01883051428563931,0.008349375829430659,-0.0010554533076119416,-5.7353051568018706e-05
5.06,0.135832429925542,0.17930587505876616,-0.014181651373235127,-0.002256436005788681,-0.007000655729989825,-4.905855618047319e-05
5.07,0.13569095056120695,0.17821760821323807,-0.03944906051600583,0.0028979448932075083,-0.004101744450546774,-5.3838706411114414e-05
5.08,0.13591119796374507,0.1775555758976033,-0.03095696577304352,0.004251178873333956,-0.0033357454771346614,-5.4396525628739e-05
5.09,0.1366912519679131,0.17789929823042172,-0.02415886665829703,0.00646293755006419,-0.002086979032022913,-5.6369156634128894e-05
5.1,0.1371707795938537,0.17771669827526537,-0.018568337303292992,0.008422700929608916,-0.0009782163135233014,-5.789480115037827e-05
5.11,0.13756296211198116,0.17738498773400835,-0.013873579440826234,-0.0022439774970717374,-0.007030992479922609,-4.917513260932245e-05
5.12,0.13740796693140211,0.17629110727890307,-0.039385453192153363,0.0029386728438374468,-0.004079651045329841,-5.418876125057812e-05
5.13,0.13762329984068344,0.17562170844920288,-0.030811104494432584,0.004298657732183371,-0.003299918067397968,-5.47593563072781e-05
5.14,0.13840845549784042,0.17596405088804445,-0.02394702192987097,0.006521997787109842,-0.002028751990173076,-5.6819482305203844e-05
5.15,0.1388875720126359,0.17577732410734015,-0.018302266013847657,0.00849188594623256,-0.0009001903414691409,-5.8407741308396184e-05
5.16,0.13927771563504443,0.1754408370158167,-0.013561997036504181,-0.002234363654679076,-0.0070611506523212105,-4.9256236373877425e-05
5.17,0.1391090925773053,0.17434188480880408,-0.039318451356962214,0.0029759933782860367,-0.0040570876106695505,-5.450754493917087e-05
5.18,0.1393194430365785,0.17366546423813745,-0.030662258687641497,0.00434261607331816,-0.003263548257062893,-5.509136136686437e-05
5.19,0.14010968977462568,0.17400665653699576,-0.023732573239954036,0.006577323825307882,-0.0019698619511968477,-5.7240697746558794e-05
5.2,0.14058835397567915,0.17381609571209822,-0.018033951896256895,0.008557153277681648,-0.000821396059880467,-5.889283741477254e-05
5.21,0.1409764089044252,0.17347514197352254,-0.013248515955410767,-0.0022273686525863534,-0.0070911388732164465,-4.930306701472649e-05
5.22,0.14079405014910673,0.1723716359780525,-0.03924962125978482,0.003010128742110034,-0.004034068422104461,-5.4796125953760085e-05
5.23,0.14099935187472656,0.1716885186908712,-0.030511956659040607,0.0043832741824072746,-0.003226651683911412,-5.539360294308461e-05
5.24,0.14179467967612158,0.1720287701356682,-0.023517011484841532,0.006629133569260439,-0.0019103268715290984,-5.763381618418276e-05
5.25,0.14227285160539616,0.1718346478285504,-0.017764849005175165,0.008618718523173436,-0.0007418534563678613,-5.935106824709838e-05
5.26,0.14265876950081413,0.1714895172044706,-0.012934553623722422,-0.0022227734261464367,-0.0071209649702601,-4.931683606338508e-05
5.27,0.14246257139194363,0.17038195215812735,-0.03918033808503196,0.003041294309500007,-0.004010607030279736,-5.5055584779260965e-05
5.28,0.14266275970231668,0.16969244397202488,-0.030361538847500924,0.004420845406477442,-0.0031892432875654207,-5.566715485273819e-05
5.29,0.14346315901636597,0.1700319439268405,-0.023301642890771745,0.0066776379140022855,-0.0018501640461544681,-5.7999862323504505e-05
5.3,0.1439407998798936,0.16983451303964614,-0.017496229460789436,0.00867679020810599,-0.00066158189031541,-5.978342385434379e-05
5.31,0.14432453378510068,0.16948547573170103,-0.012621348908226082,-0.0022203659463309443,-0.007150636026561984,-4.929876430911945e-05
5.32,0.1441143967634284,0.1683743238478641,-0.039111801655167255,0.0030696983248901435,-0.003986716313209796,-5.5287011510098567e-05
5.33,0.14430940850018725,0.16767871193978934,-0.03021217313659008,0.004455535907443488,-0.0031513373608307222,-5.5913100203093197e-05
5.34,0.14511487016810598,0.1680176304241776,-0.02308760389979625,0.006723040511129749,-0.0017893901588648116,-5.833987007828643e-05
5.35,0.14559194226049232,0.1678171248009619,-0.017229198832069414,0.008731569562363376,-0.0005806001420818731,-6.01909033662685e-05
5.36,0.14597344652922395,0.16746443203707884,-0.01230997654033672,-0.002219941441949886,-0.007180158431417964,-4.925007904840175e-05
5.37,0.14574927506172397,0.16635014376209512,-0.03904505081919751,0.0030955416958749846,-0.003962408525289091,-5.549150341826735e-05
5.38,0.145939048524224,0.16564869724344788,-0.03006486934964414,0.004487544466161609,-0.0031129475977576026,-5.613252897067064e-05
5.39,0.1467495636986449,0.16598718556304348,-0.022875875735905993,0.006765537584677634,-0.0017280213291810957,-5.865488026561282e-05
5.4,0.14722603033590076,0.1657838205870732,-0.016964709956823754,0.008783250347587986,-0.0004989264588235317,-6.057451276712777e-05
5.41,0.14760526055868084,0.16542770525873607,-0.012001361469060612,-0.002221302573736969,-0.007209537927917946,-4.917201133849588e-05
5.42,0.14736696307748876,0.16431071002909192,-0.03898097737931039,0.003119017833537586,-0.003937695343062815,-5.567016250900786e-05
5.43,0.14755143795730508,0.1636036805674479,-0.02992049278560671,0.004517062333137636,-0.003074087138435968,-5.632653557019685e-05
5.44,0.14836699803233433,0.16394187191792753,-0.02266729772770759,0.006805317792894181,-0.0016660731559690544,-5.894593828683085e-05
5.45,0.14884282347749078,0.16373584517559436,-0.01670357629990349,0.008832018729588755,-0.0004165785969806458,-6.093526265363616e-05
5.46,0.1492197364200143,0.16337652246400935,-0.011696291686291715,-0.0022242595640353975,-0.007238779657447047,-4.906579327458038e-05
5.47,0.1489672252630303,0.16225722949902988,-0.03892033916486071,0.0031403125364512056,-0.003912587907794732,-5.582409308300794e-05
5.48,0.14914634257567894,0.1615448519465268,-0.02977977725748815,0.004544273122168829,-0.0030347686105762534,-5.649621643233968e-05
5.49,0.14996693912028292,0.16188286207086122,-0.022462579885029754,0.006842562132211214,-0.0016035607578117025,-5.92140918128795e-05
5.5,0.15044208852454943,0.16167435398228847,-0.016446484565335595,0.008878053192205939,-0.0003335738615021452,-6.127416599497319e-05
5.51,0.15081664206162415,0.16131202203117923,-0.011395430909999504,-0.0022286302856698026,-0.007267888201130432,-4.893265530794451e-05
5.52,0.1505498334120059,0.16019082114571148,-0.03886377200501556,0.0031596039147715116,-0.003887096864900139,-5.595439932246365e-05
5.53,0.15072353544365313,0.15947331416299448,-0.029643336922902108,0.004569352743367879,-0.0029950041679487486,-5.664266760704215e-05
5.54,0.1515491601333796,0.15981124201314145,-0.022262315049204062,0.006877443879880003,-0.001540498810224828,-5.946038849054326e-05
5.55,0.15202359947286137,0.1596004165027587,-0.016194006349223855,0.008921524489126843,-0.0002499291419019033,-6.159223591111997e-05
5.56,0.15239575253012116,0.1592352570867206,-0.01109932995291274,-0.0022342403134402687,-0.007296867618295521,-4.877382362099247e-05
5.57,0.15211456636410325,0.1581125194904942,-0.03881180134612805,0.00317706235099441,-0.003861232400336178,-5.606218291623462e-05
5.58,0.1522827966116136,0.1573900862150701,-0.029511677652749313,0.004592469372168283,-0.0029548055257841,-5.676698240770465e-05
5.59,0.1531134411697499,0.1577280146203286,-0.0220669898354231,0.0069101285718977425,-0.0014769015798243342,-5.9685873684387046e-05
5.6,0.15358713718605088,0.15751501978300553,-0.01594660929526981,0.008962595630304795,-0.0001656609452665239,-6.189048348411668e-05
5.61,0.15395684968444456,0.15714719897808038,-0.010808437522769054,-0.002240922941489103,-0.0073257214820420784,-4.859051757285587e-05
5.62,0.1536612097191581,0.15602327811947703,-0.038764852980932574,0.0031928504941340415,-0.003835004274058263,-5.614854073811973e-05
5.63,0.15382391283957908,0.155296106816305,-0.029385207582777184,0.004613783451097454,-0.0029141839932480783,-5.687024910960691e-05
5.64,0.1546595689755348,0.15563410314500814,-0.02187699514877295,0.006940774013036947,-0.0014127829555680895,-5.9891588267822624e-05
5.65,0.15513248912302213,0.15541907193217241,-0.015704667148952467,0.009001421899821203,-8.078542634299486e-05,-6.216991561528728e-05
5.66,0.15549972192385741,0.1550487407975254,-0.010523110560711757,-0.002248519169644761,-0.007354452912031992,-4.838394722806594e-05
5.67,0.1551895555673699,0.15392397318736428,-0.0387232628540346,0.003207123284238879,-0.0038084218506657815,-5.621456259028396e-05
5.68,0.1553466773263068,0.1531922378950057,-0.02926424706117814,0.004633447721261928,-0.002873150503121142,-5.695354871457395e-05
5.69,0.15618733668176787,0.15353035474952037,-0.021692635741032973,0.006969530315948564,-0.0013481564772106743,-6.007856647484031e-05
5.7,0.15665944907650164,0.15331340564195273,-0.015468469420909514,0.009038150902189856,4.681585147893767e-06,-6.243153293988862e-05
5.71,0.1570241639314851,0.1529407009059902,-0.010243623584926809,-0.002256877661670405,-0.007383064604625271,-4.8155310978932305e-05
5.72,0.15669940223617118,0.15181540693909312,-0.03868728647660191,0.0032200280043275407,-0.00378149412737929,-5.626132902265075e-05
5.73,0.15685088945949222,0.15107926815360884,-0.02914903753037379,0.004651607280659313,-0.002831715638828766,-5.7017952792387224e-05
5.74,0.15769654355735074,0.1514175440231469,-0.021514139447731395,0.0069965399664817796,-0.0012830353611233754,-6.024783382294498e-05
5.75,0.15816781692434834,0.15119878171487855,-0.015238230304248646,0.00907292263427715,9.072455981531382e-05,-6.267632780948006e-05
5.76,0.15852997642784583,0.15082382645248416,-0.009970177359264198,-0.0022658546781797895,-0.007411558860489203,-4.790579327083169e-05
5.77,0.1581905540476436,0.1496983112447836,-0.038657107452877426,0.003231704357005872,-0.0037542297594898126,-5.628990923763869e-05
5.78,0.1583363545781813,0.14895791655478163,-0.029039750302217726,0.004668399666606423,-0.0027898896589673193,-5.7064521407970634e-05
5.79,0.1591869947686897,0.14929637650817895,-0.021341665323859615,0.007021937912538686,-0.0012174325236284885,-6.0400405116113796e-05
5.8,0.15965739839862714,0.14907589257484588,-0.015014096881316163,0.009105869580184642,0.00017732824636459282,-6.290528235070676e-05
5.81,0.16001696594325487,0.1486987968934983,-0.009702907100006541,-0.0022753139868270395,-0.007439937609833292,-4.763656243837515e-05
5.82,0.15966282108759167,0.1475733510947208,-0.03863284561589353,0.0032422845631775816,-0.0037266370834386255,-5.630135908811003e-05
5.83,0.1598028837440646,0.14682883584082873,-0.028936494302911342,0.00468395495972779,-0.0027476825194872054,-5.709430114224864e-05
5.84,0.16065850115931646,0.1471674921882382,-0.021175311601950852,0.007045851673937099,-0.0011513606020151423,-6.053728253565753e-05
5.85,0.16112800486189904,0.14694536575765582,-0.014796156690977114,0.009137116826597558,0.00026447765165643167,-6.311936660822196e-05
5.86,0.16148494459411467,0.14656622746134218,-0.009441890007622078,-0.0022851267522091545,-0.00746820243540724,-4.734876865889453e-05
5.87,0.16111601899293504,0.14544112806547105,-0.038614564203953705,0.003251893480431917,-0.003698724137678792,-5.629671917549027e-05
5.88,0.16125029352553888,0.14469261599536765,-0.028839323285012597,0.004698395907115459,-0.002705103893687155,-5.710832321319888e-05
5.89,0.16211087903506005,0.14503146894551122,-0.021015122655398955,0.007068401470918282,-0.0010848319733953117,-6.065945382533347e-05
5.9,0.16257945310127475,0.14480776737046952,-0.014584444905096916,0.009166782196263688,0.00035215802289403735,-6.331953677812631e-05
5.91,0.1629337298814093,0.14442667262359876,-0.009187152123502074,-0.002295171407772528,-0.007496354593419791,-4.7043542028697415e-05
5.92,0.16254996873965588,0.14330218377045512,-0.03860227682395134,0.003260648738838093,-0.003670498681481949,-5.6277013053479335e-05
5.93,0.1626784057995323,0.14254978766281567,-0.02874824268417342,0.004711838062421202,-0.0026621631901854893,-5.710760170247293e-05
5.94,0.16354394996587196,0.14288882598245678,-0.020861095713087252,0.007089700369092969,-0.0010178587715662585,-6.076789057626209e-05
5.95,0.16401156512246828,0.1426636054779884,-0.014378950723425987,0.00919497639742786,0.0004403548317744232,-6.350673353727098e-05
5.96,0.1643631444847582,0.1422806294670842,-0.008938674582736894,-0.0023053335118631956,-0.007524395032525575,-4.672199076615178e-05
5.97,0.1639644964557263,0.14115700322836489,-0.03859595377520009,0.0032686608920342785,-0.0036419682118453167,-5.624324554202281e-05
5.98,0.16408704755055403,0.14040082553012923,-0.028663215481117277,0.004724389940795686,-0.0026188695690239497,-5.709313189211587e-05
5.99,0.1649575405904269,0.1407400271857817,-0.020713186899001812,0.0071098544387633205,-0.0009504529020414017,-6.086354661598627e-05
6.0,0.1654241679671653,0.14051333347753214,-0.014179623306631584,0.00922180318718408,0.0005290537604339856,-6.368188047277062e-05
6.01,0.1657730160875559,0.14012854104183958,-0.00869639986689208,-0.002315505589909339,-0.007552324411034276,-4.638519954488508e-05
6.02,0.16535943322737445,0.1390060181982733,-0.03859552748508577,0.0032760335816418894,-0.0036131399786582044,-5.619640115496368e-05
6.03,0.16547605069527904,0.1382461516286071,-0.028584168241252428,0.00473615318673268,-0.0025752319560658735,-5.706588871454192e-05
6.04,0.1663514824390422,0.13858548441492147,-0.02057131673893764,0.007128962926710268,-0.000882626055408007,-6.0947356505064034e-05
6.05,0.16681709353316698,0.13835735337419663,-0.01398637721194973,0.009247359546865327,0.0006182406890337107,-6.384588261516412e-05
6.06,0.16716317718712403,0.13797079964295023,-0.008460236706753221,-0.0023255869646007683,-0.007580143112486322,-4.603422795910301e-05
6.07,0.1667346149303306,0.13684961042370603,-0.038600898086826874,0.0032828637131685993,-0.0035840209982789953,-5.613744264402366e-05
6.08,0.16684525190213684,0.13608613859128482,-0.028510995981889664,0.004747222753009865,-0.002531259055838525,-5.7026825318434436e-05
6.09,0.16772561176048306,0.13642556074833223,-0.020435375169824965,0.007147118438660956,-0.0008143897191691361,-6.102023414369988e-05
6.1,0.16819017839675432,0.1361960190005007,-0.013799097509092917,0.009271735867709123,0.0007079016848223092,-6.399962507767703e-05
6.11,0.16853346493816979,0.13580775000798795,-0.008230065233760797,-0.002335483575776086,-0.007607851259743782,-4.567010912240125e-05
6.12,0.16808988205774256,0.1346881148300838,-0.038611938038002336,0.0032892416417088025,-0.0035546180656744024,-5.606730966078333e-05
6.13,0.16819449243032913,0.13392111281484986,-0.028443567003932912,0.0047576870890598585,-0.002486959362972622,-5.697687175196424e-05
6.14,0.16907976935653934,0.13426057363430388,-0.020305226335892712,0.007164407130796482,-0.000745755188218128,-6.108307149018718e-05
6.15,0.16954326366280803,0.1340296391560969,-0.01361764411456079,0.00929501614518936,0.0007980229925305467,-6.414397180335944e-05
6.16,0.16988372097959115,0.13363969244117868,-0.008005741420902268,-0.0023451077916325294,-0.007635448727739032,-4.529384840036533e-05
6.17,0.1694250795647445,0.13252182262668555,-0.038628496561443626,0.003295251365857803,-0.003524937765264669,-5.5986917537566544e-05
6.18,0.1695236179721782,0.13175135756160472,-0.028381726977499966,0.004767628337211132,-0.0024423411723818664,-5.691693376429472e-05
6.19,0.17041380042992493,0.13209079795739598,-0.020180712674289225,0.0071809089087646275,-0.00067673357409311,-6.113673739193623e-05
6.2,0.17087619480049554,0.1318584806764278,-0.013441856125950835,0.009317278180497574,0.000888591025947178,-6.427976442098167e-05
6.21,0.1712137912945888,0.13146688586651578,-0.00778710095516999,-0.0023543782127097464,-0.0076629351550072805,-4.4906422276689995e-05
6.22,0.1707400567163564,0.13035098433977765,-0.03865040348216553,0.003300970728400774,-0.0034949864806093547,-5.589715618741543e-05
6.23,0.170832478499916,0.12957711593930554,-0.028325303205178898,0.004777122535386366,-0.0023974125883189125,-5.684789172536437e-05
6.24,0.1717275544299568,0.1299164690582444,-0.020061658645431635,0.007196697632808561,-0.0006073358131441877,-6.118207652943577e-05
6.25,0.1721888215044931,0.12968277140146256,-0.013271555339144925,0.009338593787815005,0.0009795923605465872,-6.440782121011266e-05
6.26,0.17252352605745536,0.12928955077651239,-0.007573963074491985,-0.002363219470035479,-0.00769030995414554,-4.450877735166321e-05
6.27,0.1720346669409345,0.12817581272361878,-0.03867747295771551,0.0033064716224257863,-0.003464770403070117,-5.579888912272681e-05
6.28,0.17212092812801671,0.1273985938610167,-0.028274107783943236,0.004786239824926156,-0.002352181532438846,-5.677059966346431e-05
6.29,0.17302088492265888,0.1277377855934958,-0.019947874321246672,0.007211841327702899,-0.0005375726737485323,-6.121990847270017e-05
6.3,0.17348099754843638,0.12750270305783573,-0.013106549765495856,0.009359029006083661,0.0010710137270307522,-6.452893617484177e-05
6.31,0.17381277950034857,0.12710787209435637,-0.007366133765174254,-0.0023715620186699135,-0.007717572321309759,-4.410182947141652e-05
6.32,0.17330876769916514,0.12599648562705568,-0.03870950660456174,0.0033118202016338963,-0.003434295539569989,-5.569295259129757e-05
6.33,0.17338882497330843,0.12521596284287284,-0.02822794087364855,0.004795044662336825,-0.0023066557509940017,-5.668588441930337e-05
6.34,0.17429364944310244,0.12555491237797867,-0.019839158333923024,0.007226402396315073,-0.00046745476269236647,-6.125102684914609e-05
6.35,0.17475258065724475,0.12531843405216847,-0.012946636687161117,0.009378644314120402,0.001162842005669117,-6.46438782254129e-05
6.36,0.17508140977784414,0.1249220019783337,-0.0071634087461802665,-0.002379341927807253,-0.007744721244869064,-4.368646298556757e-05
6.37,0.17456222034750724,0.12381314872911275,-0.03874629637579119,0.0033170770937188216,-0.003403567719565571,-5.558015482829871e-05
6.38,0.1746360310306283,0.12302936272856613,-0.02818659350367625,0.0048035960338519935,-0.002260842821272148,-5.659454491504364e-05
6.39,0.17554570937883263,0.12336798309586783,-0.019735300824663682,0.007240437835706697,-0.00039699253083444897,-6.127619862139132e-05
6.4,0.1760034323794457,0.12313009216224913,-0.01279160503742105,0.009397494848007738,0.0012550642213230297,-6.475339046624494e-05
6.41,0.17632927884370098,0.12273206244195478,-0.0069655762402476284,-0.002386500668490249,-0.007771755513328139,-4.326353013051567e-05
6.42,0.1757948900138473,0.1216259182035273,-0.038787627190117746,0.003322297615776967,-0.0033725926013434097,-5.546127542183691e-05
6.43,0.1758624120429264,0.12083890435832245,-0.028149850130887444,0.004811947671789631,-0.0022147501573888586,-5.64973515359103e-05
6.44,0.17677692984219284,0.12117710288972461,-0.01963608564636843,0.0072539994547730115,-0.00032619627815808983,-6.129616347302597e-05
6.45,0.1772334179639401,0.1209377771482778,-0.012641238349431205,0.009415630619776912,0.0013476675390453254,-6.485818958846019e-05
6.46,0.17755625232984684,0.12053814798740348,-0.006772419034462018,-0.002392984899905184,-0.007798673722613757,-4.283385053511088e-05
6.47,0.17700664548536693,0.1194348832589398,-0.0388332792411461,0.003327531990804651,-0.00334137567773826,-5.533706478968238e-05
6.48,0.177067837388023,0.11864467206912366,-0.02811749087783255,0.004820148271779033,-0.002168385015531229,-5.639504562188499e-05
6.49,0.17798717955375132,0.1189823508962462,-0.019541292886060546,0.007267134092516144,-0.00025507615831022357,-6.131163329981401e-05
6.5,0.1784424062456491,0.11874156323088414,-0.012495316390470634,0.009433096736502875,0.001440639260164627,-6.495896536461451e-05
6.51,0.17876219943202543,0.11834032805690953,-0.006583716825048214,-0.002398746255133418,-0.007825474282822055,-4.2398210845065036e-05
6.52,0.17819735908863876,0.11724010859470724,-0.03888303002241855,0.0033328255644235185,-0.003309922281365444,-5.520824376397604e-05
6.53,0.17825217996647602,0.11644672614163909,-0.028089293486743827,0.0048282417100172555,-0.002121754498741974,-5.628833906636224e-05
6.54,0.17917633072794814,0.11678378267987455,-0.019450700534662246,0.007279883836126343,-0.00018364218271331488,-6.132329180357098e-05
6.55,0.17963026953782268,0.11654150150253173,-0.012353617400151506,0.009449933618998202,0.0015339668187615912,-6.505638024295572e-05
6.56,0.1799469928032149,0.11613864941306673,-0.0063992480647812044,-0.0024037411271638567,-0.007852155424505786,-4.195736446201046e-05
6.57,0.17936690658082455,0.11504163676789858,-0.038936655926136154,0.0033382190210519223,-0.0032782375894502896,-5.5075503280737476e-05
6.58,0.17941531608833827,0.11424510514945752,-0.02806503520247361,0.004836267259787048,-0.002074865561328183,-5.617791401843109e-05
6.59,0.1803442589787263,0.11458143251541486,-0.019364086227824373,0.007292286238126452,-0.0001119042243340031,-6.13317941856149e-05
6.6,0.1807968835210172,0.11433762221901844,-0.012215919582558854,0.009466177219379306,0.0016276377784616041,-6.515106903817339e-05
6.61,0.1811105084437159,0.11393313841256969,-0.006218791455125938,-0.0024079304558941982,-0.007878715204590327,-4.151203139295869e-05
6.62,0.1805151670486449,0.11283949043594532,-0.038993934232678384,0.0033437485988115495,-0.0032463266283378027,-5.4939504170341994e-05
6.63,0.18055712537878854,0.11203982817509228,-0.02804449401594411,0.004844259806544469,-0.0020277250129721943,-5.606442268513095e-05
6.64,0.18149084320184805,0.11237531561736347,-0.01928122891570183,0.007304374531895906,-3.987202118444942e-05,-6.133776693623823e-05
6.65,0.18194212714761626,0.1121299370021589,-0.012082002633917455,0.009481859236838927,0.001721639829466855,-6.524363871540947e-05
6.66,0.18225262560678246,0.11172380320445541,-0.0060421273673227915,-0.0024112795167718793,-0.007905151511974762,-4.10628982054507e-05
6.67,0.18164202280734898,0.11063367450603323,-0.03905464406983583,0.003349446302537331,-0.0032141942777398624,-5.480087704520747e-05
6.68,0.18167749067488081,0.10983089695049131,-0.028027450333922843,0.004852250060954157,-0.0019803395226055363,-5.594848722975288e-05
6.69,0.1826159654882975,0.11016543027153602,-0.019201909964294828,0.007316177844974786,3.2444820385903704e-05,-6.13418077165701e-05
6.7,0.18306588254302092,0.10991844092256287,-0.011951648914987345,0.009497007331038525,0.0018159607857705217,-6.533466826392962e-05
6.71,0.18337322669870204,0.10951063578179543,-0.005869039192418768,-0.002413757711670319,-0.00793146207289185,-4.061061808369969e-05
6.72,0.18274735931078645,0.10842417819567629,-0.039118567869422805,0.003355340114311294,-0.0031818452747912626,-5.4660222280408335e-05
6.73,0.18277629792784467,0.10761829787764299,-0.028013687867201043,0.004860264769311555,-0.0019327156221096097,-5.5830699762001706e-05
6.74,0.18371951102658102,0.10795175982458716,-0.01912591436337152,0.007327721409596685,0.00010503682254292762,-6.13444853289656e-05
6.75,0.1841680349135011,0.10770311451580028,-0.011824644516877925,0.009511645332582292,0.0019105885824918117,-6.542470865672247e-05
6.76,0.1844721971921981,0.10729361398009729,-0.005699314300500191,-0.0024153383625329216,-0.007957644456079015,-4.015581098059474e-05
6.77,0.18383106505148739,0.10621097696450477,-0.03918549211334721,0.0033614542010064665,-0.0031492842179635123,-5.4518110083004245e-05
6.78,0.18385343612425942,0.10540200400033228,-0.028002994731934905,0.004868326920845872,-0.0018848597098981021,-5.571162241574219e-05
6.79,0.18480136801835023,0.10573427461135765,-0.019053031614646443,0.007339026769960673,0.0001778946329150828,-6.134633977175979e-05
6.8,0.18524847245626752,0.10548392565201681,-0.01170078043344347,0.009525793450100399,0.002005511273281215,-6.551428289213507e-05
6.81,0.18554942553539178,0.10507270333803831,-0.0055327448578168514,-0.002415998508243422,-0.007983696077806314,-3.96990638605539e-05
6.82,0.1848930314840569,0.10399403440608523,-0.03925520843495178,0.003367809118392683,-0.0031165155708840165,-5.43750806454693e-05
6.83,0.1849087971872443,0.10318197678937935,-0.027995164231242597,0.004876455951474264,-0.0018367780544180166,-5.559178750988655e-05
6.84,0.18586142758847402,0.10351293376675841,-0.018983056513377505,0.007350111985824398,0.0002510090215976323,-6.134788237422816e-05
6.85,0.1863070862828664,0.10326083137002229,-0.011579852987608774,0.00953946847353075,0.002100717027763206,-6.560388611345959e-05
6.86,0.186604803067425,0.10284785887382242,-0.005369128679433288,-0.002415718705167564,-0.00800961420681287,-3.924093102779508e-05
6.87,0.18593315293635726,0.10177330396654583,-0.03932751418744829,0.0033744220113836832,-0.0030835436661046257,-5.4231644378764326e-05
6.88,0.18594227590540413,0.10095816792343726,-0.027989995459165584,0.004884667943590382,-0.0017884767976197185,-5.547169778775661e-05
6.89,0.18689958370621262,0.10128768696215928,-0.018915790001017285,0.007360991832012841,0.0003243708781649989,-6.134959600733001e-05
6.9,0.18734377032703087,0.10103377954262527,-0.011461664577439024,0.009552683973210688,0.002196194128966642,-6.569398580229783e-05
6.91,0.18763822394629592,0.10061902679492363,-0.005208269797662979,-0.002414482831709955,-0.008035395969178103,-3.878193453483692e-05
6.92,0.18695132653179236,0.09954873062767433,-0.03940221308340597,0.003381306810086267,-0.00305037270884833,-5.4088282220268695e-05
6.93,0.18695376984734224,0.09873052089215406,-0.02798729411779277,0.004892975821564717,-0.0017399619584195403,-5.535182673037392e-05
6.94,0.18791573310639187,0.09905847600855111,-0.018851039378375845,0.007371677993533745,0.0003979712086726061,-6.135193536593982e-05
6.95,0.18835842128250846,0.0988027105108813,-0.011346024315628256,0.009565450494475807,0.0022919309707260267,-6.578502204145867e-05
6.96,0.18864958506004115,0.09838614607460272,-0.005049978959448254,-0.002412277897232742,-0.008061038353167516,-3.8322564665783603e-05
6.97,0.1879474521149227,0.09732025245234865,-0.039479115550022925,0.003388474421325123,-0.003017006780768344,-5.394544601184189e-05
6.98,0.18794317929282656,0.09649897259489393,-0.027986872588314782,0.004901389542637281,-0.0016912394361879772,-5.523261893886013e-05
6.99,0.18890977521834884,0.09682523639753526,-0.018788619016163466,0.007382179255988545,0.00047180113261165624,-6.135532731796953e-05
7.0,0.18935093851535356,0.09656755858067356,-0.01123274827818932,0.009577775747468554,0.002387916055018569,-6.587740784303803e-05
7.01,0.18963878597233474,0.09614914993516521,-0.00489407391057739,-0.002409093855600536,-0.008086538214075251,-3.786328048902914e-05
7.02,0.18892143217597024,0.09508780208999923,-0.039558039333087436,0.0033959329153861444,-0.002983449843741836,-5.3803558943278e-05
7.03,0.188910407155074,0.09426345474405906,-0.027988550606039553,0.004909916282955781,-0.001642315014284387,-5.511449058126297e-05
7.04,0.18988161209376742,0.09458789875793627,-0.018728350426044926,0.007392501691042922,0.0005458518798019008,-6.136017131592452e-05
7.05,0.19032122400508555,0.0943282534748846,-0.011121659930779515,0.009589664791928855,0.002484137989226672,-6.597152953743473e-05
7.06,0.19060572883145,0.09390796726904682,-0.004740379928591665,-0.002404923423610759,-0.008111892279083622,-3.740451047387398e-05
7.07,0.1898731717919766,0.09285130812664022,-0.039638809390396545,0.0034036877077397625,-0.0029497057437135564,-5.366301605634285e-05
7.08,0.18985535891635763,0.09202389528173427,-0.027992155366973748,0.004918560618528632,-0.0015931943636544083,-5.49978298990588e-05
7.09,0.19083114833895465,0.09234639017474677,-0.01867006279354655,0.007402648836736796,0.0006201147872057083,-6.136683986640554e-05
7.1,0.19126918227252432,0.09208472162125503,-0.011012590164227731,0.009601120216754747,0.0025805854833053387,-6.606774721878673e-05
7.11,0.19155031832696068,0.09166252396219932,-0.00458872975173108,-0.002399761904498296,-0.008137097152158265,-3.694665316594992e-05
7.12,0.19080257854797722,0.09061069641269626,-0.03972125842466312,0.003411741735555556,-0.002915778214608745,-5.3524184804624435e-05
7.13,0.19077794256583402,0.08978021963201854,-0.027997521669931302,0.004927324700912796,-0.0015438830465039572,-5.488299776857949e-05
7.14,0.19175829105710918,0.090100635485868,-0.018613592835947657,0.007412621872459453,0.0006945812956511187,-6.137567905296451e-05
7.15,0.19219472031206664,0.08983688744912399,-0.010905377720860088,0.009612142314170012,0.0026772473468467915,-6.616639524267644e-05
7.16,0.19247246161535614,0.08941274411089495,-0.0044389639697328676,-0.002393607016700588,-0.008162149318990957,-3.6490077915827285e-05
7.17,0.1917095624826004,0.08836589124427974,-0.039805226847988706,0.003420095628844739,-0.002881670882321887,-5.338740566448514e-05
7.18,0.1916780685373709,0.08753235189118413,-0.0280044919875877,0.004936208427481347,-0.001494386520058279,-5.477032831271679e-05
7.19,0.19266294977171583,0.08785055844118261,-0.018558785086497664,0.007422419788445645,0.0007692429464568869,-6.138700910798063e-05
7.2,0.1930977475539386,0.08758467452629759,-0.010799869052391387,0.009622729248358164,0.0027741124860378224,-6.62677827716289e-05
7.21,0.19337206825120745,0.08715855118079929,-0.004290930739614396,-0.0023864587280149827,-0.00818704515199576,-3.6035125655930305e-05
7.22,0.1925940360369971,0.08611681652226366,-0.03989056285291781,0.003428747876098797,-0.0028473872687876534,-5.32529927924658e-05
7.23,0.19255564964515415,0.08528021596454494,-0.028012916715169922,0.004945209606143302,-0.00144471014041249,-5.466012955821e-05
7.24,0.19354503638879805,0.08559608281721864,-0.018505491858888945,0.007432039549672515,0.0008440913779557454,-6.140112502901483e-05
7.25,0.19397817577759824,0.08532800664706741,-0.010695918284397976,0.009632877218454797,0.0028711699005034147,-6.637219436426464e-05
7.26,0.19424905015830163,0.08489986906834446,-0.004144486283053084,-0.002378319095259684,-0.008211780915367155,-3.5582109720331744e-05
7.27,0.19345591398156614,0.08386339677368682,-0.03997712230585648,0.0034376949843304486,-0.0028129307961376653,-5.312123472447526e-05
7.28,0.19341060103261754,0.08302373658342077,-0.028022653921766505,0.004954324114431771,-0.001394859166471635,-5.455268413407636e-05
7.29,0.1944044651347454,0.08333713341190929,-0.018453573247256827,0.007441476254079047,0.0009191183219163007,-6.141829723538821e-05
7.3,0.19483591907620834,0.08306680884029305,-0.010593387429480572,0.009642580615821565,0.0029684086800417083,-6.647989060384107e-05
7.31,0.19510332154970556,0.08263662309548891,-0.003999494282425076,-0.002369192109527315,-0.008236352770200614,-3.5131316702630734e-05
7.32,0.1942951133782067,0.08160555813319093,-0.04006476888918087,0.003446931633432004,-0.002778304790944079,-5.29923951123671e-05
7.33,0.19424284013247473,0.08076284026881098,-0.028033569350327525,0.004963546052879263,-0.001344838763984197,-5.44482500065653e-05
7.34,0.19524115250080243,0.08107363701270742,-0.018402896948543912,0.007450723285034152,0.000994315599863655,-6.143877226065823e-05
7.35,0.19567089380556624,0.08080100828866676,-0.010492146103047162,0.009651832175539443,0.003065818001249613,-6.659110876208003e-05
7.36,0.19593479889223886,0.08036874092454127,-0.0038558262005494726,-0.0023590835470861434,-0.008260756779673483,-3.468300734693637e-05
7.37,0.19511155352480714,0.07934322923563997,-0.04015337385254725,0.0034564508248078763,-0.0027435124885438504,-5.286671349337737e-05
7.38,0.19505228659344453,0.07849745620625015,-0.02804553638213747,0.004972867892643416,-0.0012946540096609959,-5.4347061246433896e-05
7.39,0.1960550171942188,0.07880552324035506,-0.018353338226972937,0.007459772458023291,0.0010696751193065921,-6.146277347689431e-05
7.4,0.19648301853303352,0.07853053519468745,-0.010392071523313007,0.009660623122092496,0.003163387124048572,-6.670606349427265e-05
7.41,0.19674340085540365,0.07809615337972531,-0.0037133610319983745,-0.0023480008259668377,-0.008284988914288511,-3.423741746722017e-05
7.42,0.19590515591083602,0.0770763420421261,-0.04024281583525635,0.003466244024248997,-0.002708557037443212,-5.274440608825349e-05
7.43,0.19583886225360558,0.07622751705405051,-0.028058435752598143,0.004982280617354984,-0.0012443098953780147,-5.424932882422568e-05
7.44,0.19684598011160404,0.07653272536600753,-0.01830477987851964,0.007468614161531105,0.001145188869873577,-6.14905018466182e-05
7.45,0.19727221398646577,0.07625532354449405,-0.010293048156029272,0.009668943309227993,0.0032611053881144445,-6.682494756174459e-05
7.46,0.19752904827141649,0.07581879524209967,-0.00357198508993406,-0.0023359528682501286,-0.00830904505716416,-3.3794758890492286e-05
7.47,0.19667584416849238,0.07480483258159865,-0.04033298083072623,0.0034763012990428124,-0.0026734415037897906,-5.262566662385085e-05
7.48,0.19660249109598738,0.07395295968937177,-0.028072155515701525,0.004991773859188712,-0.001193811332449285,-5.415524142943155e-05
7.49,0.19761396426787314,0.0742551810217762,-0.01825711180458711,0.007477237492124448,0.0012208489193733618,-6.152213669857536e-05
7.5,0.19803840302756726,0.07397531184505368,-0.010194967785537301,0.009676781354000904,0.0033589622092258,-6.694793257786786e-05
7.51,0.19829166408413812,0.07353660592901434,-0.0034315918640004384,-0.002322949968054674,-0.008332921009378252,-3.335522041929353e-05
7.52,0.19742354404383988,0.07252864165252504,-0.040423761902275146,0.003486611449326398,-0.002638168875909316,-5.2510667176199375e-05
7.53,0.19734309919305915,0.07167372587435494,-0.02808659086639409,0.005001336029167554,-0.0011431631559664244,-5.406496630960208e-05
7.54,0.19835889478070357,0.07197283287574407,-0.018210230905424396,0.007485630383753861,0.0012966474097841185,-6.155783652345983e-05
7.55,0.19878151059860016,0.07169044374588651,-0.010097729123970112,0.009684124765025712,0.003456947075537998,-6.70751697738963e-05
7.56,0.19903117332686904,0.0712495301513627,-0.003292081771633093,-0.0023090036651975034,-0.00835661249534636,-3.291896880939262e-05
7.57,0.19814818333907525,0.07024771542241126,-0.040515059041013046,0.003497162133717136,-0.0026027420688924828,-5.239955903017013e-05
7.58,0.1980606146934072,0.06938976286452458,-0.02810164367872403,0.0050109544417370235,-0.0010923701291917207,-5.397865012560496e-05
7.59,0.199080698815024,0.0696856292048409,-0.018164041044599344,0.007493779731312027,0.0013725765531838632,-6.15977397859178e-05
7.6,0.19950146370018018,0.06940066865634975,-0.010001237704670984,0.009690960064977508,0.0035550495437952565,-6.720679078122684e-05
7.61,0.19974750306461786,0.06895751846425213,-0.003153361980423597,-0.0022941266244982557,-0.008380115168227602,-3.2486149758433655e-05
7.62,0.19884969190364643,0.06796200600511781,-0.04060677884609731,0.0035079399892543597,-0.0025671639292223873,-5.229247355202799e-05
7.63,0.1987549677617828,0.06710102397278206,-0.028117222470314118,0.00502061543365113,-0.001041436947990279,-5.389641981923774e-05
7.64,0.19977930556747125,0.06739352446327729,-0.018118452516091565,0.007501671508496048,0.0014486286276392674,-6.164196574938316e-05
7.65,0.20019819134020622,0.06710594223857669,-0.009905405526922095,0.009697272907395315,0.0036532592354983568,-6.734290842641113e-05
7.66,0.20044058238744,0.06666052779547016,-0.003015346159429555,-0.002278332520666804,-0.008403424615351904,-3.2056888901832715e-05
7.67,0.19952800157430062,0.06567147195823964,-0.040698834311569954,0.0035189307457201687,-0.0025314372394307887,-5.2189523071327325e-05
7.68,0.1994260905680001,0.06480746902681744,-0.02813324222472602,0.00503030447723766,-0.0009903682452942117,-5.3818383489847915e-05
7.69,0.2004546462219814,0.06509647973995669,-0.018073381973238156,0.007509290880045787,0.0015247959730606232,-6.16906153103193e-05
7.7,0.2008716245183173,0.06480622690929749,-0.009810150878308832,0.009703048187860492,0.0037515658330368917,-6.748361753596815e-05
7.71,0.20111034235936742,0.06435852190289637,-0.0028779540883761,-0.002261635928719431,-0.0084265363636508,-3.163129281206023e-05
7.72,0.20018304616842286,0.06337607870943174,-0.04079114457766764,0.0035301193343991047,-0.0024955647227700092,-5.2090801768697526e-05
7.73,0.200073917242527,0.06250906484428498,-0.028149624000661788,0.0050400062881065175,-0.0009391685955814663,-5.374463127649591e-05
7.74,0.2011066539275852,0.06279446318924187,-0.018028752037935192,0.00751662230842381,0.0016010709870382953,-6.174377183863745e-05
7.75,0.20152169619258586,0.06250149221287415,-0.009715398121556973,0.009708270149621369,0.0038499590758011284,-6.762899574760928e-05
7.76,0.2017567159984246,0.06205147178306447,-0.0027411116931830293,-0.002244052219836635,-0.008449445885086143,-3.120944999794369e-05
7.77,0.20081476143962718,0.061075798969412176,-0.04088363468213174,0.0035414899913674084,-0.002459549047887504,-5.1996386566402066e-05
7.78,0.20069838386316263,0.06020578557919265,-0.028166294470111097,0.005049704927396906,-0.0008878425193560486,-5.3675236242527335e-05
7.79,0.2017352637628811,0.06048745039954895,-0.017984491336164865,0.007523649655036901,0.0016774461206766139,-6.18015020212775e-05
7.8,0.2021483412528724,0.06019171522542166,-0.009621077197152772,0.009712922483765391,0.003948428756291762,-6.777910432509006e-05
7.81,0.20237963825220362,0.059739356004229194,-0.002604750477530615,-0.0022255974625798904,-0.00847214860205479,-3.0791431900602065e-05
7.82,0.20142308506887474,0.058770613065028954,-0.040976235204936984,0.0035530263553992516,-0.00242339283348737,-5.19063380185415e-05
7.83,0.20129942841506931,0.05789761305940999,-0.028183186167041185,0.005059383898649626,-0.0008363944876175178,-5.3610255259518665e-05
7.84,0.2023404127315942,0.05817542472197346,-0.017940533822979887,0.007530356276088659,0.0017539138744393891,-6.186385670604068e-05
7.85,0.202751496498621,0.05787688084346598,-0.009527123694397233,0.009716988424032097,0.004046964716239046,-6.79339889737648e-05
7.86,0.20297904597565974,0.05742216102166964,-0.002468807380751059,-0.0022062883293717805,-0.008494639892771832,-3.0377293882932005e-05
7.87,0.20200795662450588,0.05646050922347712,-0.041068882090655734,0.0035647115605922913,-0.0023870986529698915,-5.182070119800836e-05
7.88,0.2018769907863316,0.05558453709753053,-0.028200236776854126,0.005069026239411533,-0.0007848289263052411,-5.354972988780251e-05
7.89,0.20292203971816747,0.05585837753230294,-0.017896818675922077,0.007536725113171934,0.001830466794017855,-6.193087174291525e-05
7.9,0.20333110061887538,0.05555698204151582,-0.009433478282971919,0.00972045083637718,0.004145556842745099,-6.809368065426688e-05
7.91,0.2035548779133478,0.05509988145302458,-0.0023332245291385334,-0.0021861420081299068,-0.008516915096606728,-2.9967076209770536e-05
7.92,0.20256931755779917,0.054145483820988716,-0.0411615164352952,0.0035765283238219717,-0.00235066903903343,-5.173950657760215e-05
7.93,0.20243101273464958,0.05326655568627103,-0.02821738888769687,0.005078614607684477,-0.0007331502207048454,-5.34936872508743e-05
7.94,0.2034800854855412,0.053536308475266026,-0.01785329018844095,0.007542738778715594,0.0019070974662366645,-6.200256882038349e-05
7.95,0.20388709417673567,0.05323202012963435,-0.009340086677411819,0.009723292303405079,0.004244195064465202,-6.825819639179289e-05
7.96,0.2041070746727769,0.05277252024260548,-0.002197948845150677,-0.002165176118941096,-0.008538969519363726,-2.9560805015924786e-05
7.97,0.20310711117410563,0.05182554159599562,-0.04125408402444464,0.003588459027144851,-0.0023141064882215125,-5.166277090265044e-05
7.98,0.2029614378828981,0.05094367522495702,-0.02823459006151552,0.00508813136333769,-0.0006813627197995104,-5.3442140901202e-05
7.99,0.20401449265294858,0.05120922563772723,-0.01780989727251381,0.007548379636408765,0.0019837985150166293,-6.207895629425326e-05
8.0,0.20441941958715404,0.05090200487778418,-0.009246899104198292,0.009725495203794525,0.004342869347845281,-6.842754007860722e-05
8.01,0.20463557871774896,0.050440088887881984,-0.0020629320118814576,-0.002143408635658952,-0.008560798438498218,-2.9158493259762802e-05
8.02,0.2036212826306283,0.04950069580900163,-0.04134653508458541,0.0036004857952699042,-0.0022774134654089404,-5.159049805287247e-05
8.03,0.20346821168581997,0.04861591064830861,-0.028251792265621134,0.005097558644606705,-0.0006294707405583677,-5.33950916751305e-05
8.04,0.20452520568481347,0.04887714571299995,-0.01776659324548291,0.007553629876723573,0.00206056259739862,-6.216003000677812e-05
8.05,0.2049280211102733,0.04856695472010841,-0.00915387030175907,0.009727041786840075,0.004441569693421117,-6.860170326772287e-05
8.06,0.2051403343505953,0.04810260753274065,-0.001928129904626985,-0.0021208578123001493,-0.008582397108257466,-2.8760141659729488e-05
8.07,0.20411177891421772,0.047170968335841224,-0.04143882438967239,0.0036125905682262323,-0.0022405924082141045,-5.152267989125492e-05
8.08,0.20395128143890773,0.04628328558631267,-0.028268951517418373,0.005106878439808928,-0.0005774785721484603,-5.33525285347337e-05
8.09,0.20501217087742774,0.0465400940941052,-0.017723335723474065,0.007558471587673492,0.0021373823996458435,-6.224577409403639e-05
8.1,0.2054128448292225,0.046226896794898664,-0.009060959058615481,0.009727914242248337,0.004540286132197905,-6.878066595551488e-05
8.11,0.20562128770995614,0.04576010509627082,-0.0017935026264126464,-0.0020975421140970087,-0.008603760764724487,-2.836573961205007e-05
8.12,0.20457854882582893,0.04483638980534721,-0.04153091040848267,0.003624755169369656,-0.0022036457313166155,-5.14592970979947e-05
8.13,0.20441059625619928,0.043945832390868134,-0.028286028026514032,0.005116072654417894,-0.000525390480053563,-5.331442939461847e-05
8.14,0.2054753363434081,0.044198104953707684,-0.017680086124016725,0.007562886820946099,0.0022142506334401524,-6.233616177962017e-05
8.15,0.20587383865899866,0.04388186706894004,-0.008968128142328169,0.009728094765327967,0.004639008722123647,-6.896439735168239e-05
8.16,0.20607838675079648,0.04341261929940998,-0.0016590140816674648,-0.002073480153088055,-0.008624884630769238,-2.797526608738306e-05
8.17,0.20502154298496222,0.042496999621555176,-0.04162275551777839,0.0036369613688534775,-0.0021665758306808145,-5.1400319987576105e-05
8.18,0.2048461070680574,0.04160359223348564,-0.028302985590755725,0.005125123173623158,-0.0004732107100946612,-5.328076193192003e-05
8.19,0.20591465200947567,0.04185122129296559,-0.017636809630516836,0.007566857653540574,0.0022911600321772604,-6.243115615288028e-05
8.2,0.20631095232204189,0.04153191033307024,-0.00887534387317146,0.009727565617708052,0.00473772754466326,-6.91528566345462e-05
8.21,0.20651158123774493,0.04106019672267536,-0.0015246316920070058,-0.0020486906280922593,-0.008645763920885056,-2.7588690504827085e-05
8.22,0.205440713818561,0.040152845999230635,-0.04171432561150823,0.003649190942715254,-0.002129385087667691,-5.134570930744776e-05
8.23,0.2052577666034061,0.03925661508308309,-0.028319791560704743,0.005134011920530301,-0.0004209434923383129,-5.325148437780529e-05
8.24,0.20633006961645606,0.03949949494597149,-0.017593474765931205,0.007570366245065458,0.0023681033473744524,-6.253071093013826e-05
8.25,0.20672413735711714,0.03917708023770672,-0.008782576017551946,0.009726309183735479,0.004836432701485838,-6.934599369039616e-05
8.26,0.2069208227539754,0.03870289280172301,-0.0013903263251791032,-0.0020231922689418307,-0.008666393845911939,-2.720597358166801e-05
8.27,0.2058360155454686,0.037803985941664564,-0.04180558981659033,0.0036614257277118615,-0.002092075873029238,-5.129541701661344e-05
8.28,0.20564552940083303,0.03690495973707186,-0.028336416448837554,0.005142720910130979,-0.0003685930448864732,-5.32265462890299e-05
8.29,0.20672154270595655,0.03714298657087056,-0.01755005335724036,0.007573394890827869,0.002445073345199388,-6.263477119738569e-05
8.3,0.20711334709488938,0.03681743923955594,-0.008689797503791397,0.009724308022691393,0.004935114311275031,-6.954374983523406e-05
8.31,0.20730606468344348,0.036340771796261606,-0.0012560719753196281,-0.001997003784806394,-0.008686769617621468,-2.682706815755424e-05
8.32,0.20620740419197148,0.0354504852406734,-0.04189652038633085,0.0036736476720647367,-0.0020546505507689815,-5.1249387042982764e-05
8.33,0.20600935179748703,0.03454869371921632,-0.028352833787437248,0.005151232299209424,-0.00031616357752979347,-5.3205889298194915e-05
8.34,0.2070890266248071,0.034781765609892545,-0.01750652014465004,0.007575926070880198,0.0025220628031355614,-6.274327413325888e-05
8.35,0.2074785366823484,0.03445305859273162,-0.008596984173436795,0.009721544916984558,0.005033762506676087,-6.974605851783764e-05
8.36,0.2076672622153275,0.033973906736761705,-0.0011218455142625317,-0.0019701438164954153,-0.008706886453180698,-2.6451919991740905e-05
8.37,0.20655483757847648,0.033092418361135856,-0.04198709227409836,0.0036858388822400756,-0.002017111481874532,-5.120755601809389e-05
8.38,0.20634919192241696,0.032187893301838244,-0.028369019986485,0.005159528432305679,-0.00026365929527373587,-5.318944784155411e-05
8.39,0.20743247851617852,0.03241591021385659,-0.017462852746064073,0.0075779424951463205,0.0025990645067763486,-6.285614971101504e-05
8.4,0.20781966306726574,0.03208401824217333,-0.008504114603624657,0.009718002916451515,0.00513236743137376,-6.995284600285085e-05
8.41,0.20800437235291014,0.03160237933563792,-0.0009876265494312975,-0.0019426308925555823,-0.008726739579458867,-2.608046853254793e-05
8.42,0.20687827531951086,0.03072986845431558,-0.04207728313332382,0.003697981665935624,-0.0019794610278973668,-5.116985398836041e-05
8.43,0.2066650097143352,0.029822643341503863,-0.028384954049442968,0.005167591883914762,-0.00021108440170762382,-5.31771498633546e-05
8.44,0.20775185733068469,0.030045507122267168,-0.01741903112417731,0.007579427144806966,0.0026760712467783247,-6.297332137862251e-05
8.45,0.2081366850070765,0.02971040675703307,-0.008411170000499624,0.009713665378939472,0.00523091923732932,-7.016403203306452e-05
8.46,0.20831735389137407,0.029226279938399102,-0.0008533971396218476,-0.0019144833890479985,-0.008746324237193539,-2.5712647657957315e-05
8.47,0.20717767883482452,0.028362927126934778,-0.04216707310433776,0.003710058571404745,-0.0019417015543872302,-5.113620510171668e-05
8.48,0.20695676691051546,0.027453037247937573,-0.028400617217982926,0.005175405497043482,-0.00015844310222940536,-5.316891749579224e-05
8.49,0.20804712383082347,0.02767065161890514,-0.017375037835165585,0.007580363310065545,0.0027530758159574347,-6.309470671600153e-05
8.5,0.20842956305777705,0.027332321206330334,-0.00831813380841595,0.0097085160072953,0.005329408082163492,-7.037953046982114e-05
8.51,0.2086061674555495,0.026845707319367307,-0.0007191417239482689,-0.001885719492840084,-0.0087656356850039,-2.5348386386752843e-05
8.52,0.20745301133828775,0.025991694458937786,-0.04225644445909893,0.0037220524232723833,-0.0019038354341721232,-5.110652826910768e-05
8.53,0.2072244270578949,0.025079176753095567,-0.028415993149621954,0.005182952418289965,-0.00010573960711431551,-5.3164667713881054e-05
8.54,0.20831824058209492,0.02529144738083744,-0.017330857495778673,0.007580734624460078,0.002830071006545897,-6.322021806868611e-05
8.55,0.20869825960279087,0.024949866981316404,-0.008224991603356102,0.00970253888292539,0.005427824126699286,-7.059924991103163e-05
8.56,0.20887077547104838,0.024460768672796007,-0.000584846802098582,-0.0018563571682672034,-0.008784669203234032,-2.49876095595409e-05
8.57,0.20770423787119796,0.02361627872815575,-0.04234538163672141,0.0037339463549956988,-0.0018658650504701241,-5.10807378000642e-05
8.58,0.2074679555041925,0.022701171902284045,-0.02843106734928824,0.0051902161295884885,-5.2978134413175e-05,-5.31643129645731e-05
8.59,0.2085651719729853,0.022908006265254244,-0.017286476783340277,0.007580525095866075,0.002907049607617173,-6.334976315736095e-05
8.6,0.20894273883964587,0.022563157759947217,-0.008131731057403613,0.00969571849607137,0.005526157532674254,-7.082309428603331e-05
8.61,0.209111142202012,0.02207157930200765,-0.00045050086328046746,-0.0018264141270245681,-0.008803420097647032,-2.4630238489265662e-05
8.62,0.20793132526453206,0.021236796374779487,-0.042433870817149,0.00374572383810554,-0.001827792799844968,-5.1058744011870354e-05
8.63,0.20768731943565655,0.020319140769942123,-0.028445827346956776,0.005197180476765819,-1.6291269582034522e-07,-5.316776176971573e-05
8.64,0.20878788420830574,0.020520448265060054,-0.017241884222585213,0.00757971913433192,0.0029840044026691343,-6.348324566264892e-05
8.65,0.2091629667955175,0.020172315204902702,-0.008038341547944583,0.009688039772944945,0.005624398460613319,-7.105096342679972e-05
8.66,0.20932723373778828,0.01967826260163008,-0.00031609413753130866,-0.0017959078011394562,-0.008821883702942394,-2.427619158077263e-05
8.67,0.2081342421966781,0.01885337174378776,-0.04252190006326373,0.0037573687083837636,-0.0017896210949880694,-5.104045381202241e-05
8.68,0.2078824878459784,0.017933209370823988,-0.0284602622713237,0.005203829695054396,5.270181638226891e-05,-5.317491930235215e-05
8.69,0.2089863453313967,0.0181289012246566,-0.01719706990144232,0.007578301576898353,0.003060928167383979,-6.362056578490537e-05
8.7,0.2093589113361105,0.017777468901414295,-0.007944814193194816,0.00967948809987054,0.005722537067875616,-7.128275361520099e-05
8.71,0.2095190180106954,0.017280949755615893,-0.0001816185601910547,-0.0017648553188779215,-0.008840055386111063,-2.3925384919502514e-05
8.72,0.20831295915346715,0.016466136942838716,-0.04260945889456025,0.0037688651891172823,-0.0017513523673335415,-5.102577125362415e-05
8.73,0.20805343158070144,0.015543511455717862,-0.02847436288533345,0.00521014843171125,0.00010561179567897,-5.318568793630341e-05
8.74,0.20916052523300976,0.01573350071559787,-0.01715202557761586,0.0075762577095449994,0.0031378136675541055,-6.376162077864866e-05
8.75,0.20953054217009992,0.015378756081929623,-0.007851141567982722,0.009670049344581051,0.005820563506872877,-7.151835810593316e-05
8.76,0.20968646479158082,0.014879779648424574,-4.706752321226304e-05,-0.0017332734834514252,-0.008857930549616352,-2.357773282888428e-05
8.77,0.20846744849034593,0.014075231646870634,-0.04269653832267295,0.0037801979115700737,-0.001712989069499511,-5.1014598063595734e-05
8.78,0.2082001233105757,0.013150188262756046,-0.02848812126643452,0.00521612176587867,0.0001585627503406929,-5.319996776865778e-05
8.79,0.2093103956557485,0.013334389814545489,-0.017106744358841297,0.007573573286402711,0.003214653657185285,-6.390630546144433e-05
8.8,0.2096778308668945,0.012976321484003961,-0.007757317632695049,0.009659709874803368,0.005918467923460426,-7.175766762499806e-05
8.81,0.2098295457297894,0.012474898580805416,8.756426694844777e-05,-0.0017011787543737503,-0.008875504634406206,-2.3233148396850295e-05
8.82,0.20859768439240867,0.011680802876057328,-0.04278313063821315,0.0037913519328164587,-0.0016745336775582072,-5.1006834143659845e-05
8.83,0.20832253759373032,0.010753388384188156,-0.028501530842106604,0.0052217352258305694,0.0002115503857468249,-5.321765711533639e-05
8.84,0.20943593018962758,0.010931718916751265,-0.017061220596303883,0.007570234546376762,0.0032914408767699436,-6.405451269732868e-05
8.85,0.20980075086551864,0.010570317101610271,-0.007663337591168329,0.009648456574280704,0.006016240455502557,-7.200057084363904e-05
8.86,0.20994823434428156,0.010066460101043617,0.00022228078933039797,-0.0016685872313385898,-0.008892773122754187,-2.2891543971325437e-05
8.87,0.20870364291436516,0.009283004782645321,-0.042869229410769094,0.0038023127510717217,-0.0016359886931327497,-5.100237804415289e-05
8.88,0.2084206508401465,0.008353267508809381,-0.028514586105643502,0.005226974803741979,0.0002645703856307758,-5.323865297964927e-05
8.89,0.20953710432536354,0.008525645478485444,-0.01701544984911152,0.007566228227314736,0.0033681680517368487,-6.420613385456147e-05
8.9,0.20989927748349402,0.00816090198085817,-0.007569197784107473,0.009636276856360981,0.00611387123161234,-7.224695482768736e-05
8.91,0.21004250603695596,0.0076546247829156755,0.00035708499268594096,-0.0016355146404800087,-0.008909731540926138,-2.2552831625112534e-05
8.92,0.20878530199830436,0.006881998455554594,-0.042954829027053165,0.0038130663186538615,-0.0015973566453202715,-5.1001127410736626e-05
8.93,0.20849444133386186,0.005949988217679447,-0.0285272827937888,0.005231826968113526,0.00031761841037071244,-5.326285149402825e-05
8.94,0.20961389543217024,0.006116333821637454,-0.016969428564550526,0.0075615415778528955,0.003444827891070798,-6.436105923800063e-05
8.95,0.20997338794348508,0.005748242006831106,-0.007474895546977223,0.009623158675290773,0.006211350370062374,-7.24967054624551e-05
