timestamp, accel_x, accel_y, accel_z, gyro_x, gyro_y, gyro_z
0.01,0,0,0,0.013869725641936746,0.013793992023665474,-0.004446632510208244
0.02,0,0,0,0.01648961080703895,0.01604664839378793,0.019657327380570917
0.03,0.004796294311572275,0.004740239887295266,0.0015805049706442565,-0.016800287560612685,0.0016737342949737924,0.0051580287181649505
0.04,-0.0015306484790256173,-0.008827805577962852,-0.6683811753453999,-0.006000003652358603,-0.0014080648043282929,0.012147381345055837
0.05,-0.005915557333856144,-0.004649465869189254,0.033147992143942435,0.013532354963267886,0.01286788028349221,-0.003578470335175816
0.06,-0.0032293470724503418,-0.007647419277051733,0.028049309874572527,-0.005891516396676672,-0.016329251540587994,0.0074990048894942865
0.07,-0.00744756821116848,-0.0012579374578891773,0.016141935295161863,-0.003724234258293489,0.01606423753947456,0.004877390498575527
0.08,-0.012263334549458143,-0.008888533886361724,-0.0029543319274822517,-0.0015060656092228436,0.02971054192029321,-0.012422024825929107
0.09,-0.01797585704010872,-0.006419464241731135,0.01245042111727141,-0.0047983288241076,0.021489689002083083,0.013876674644422953
0.1,-0.027629778645840285,-0.01223702599643958,-0.18667244250566065,-0.0054798635145850315,-0.0015293863056157452,0.011825875918831507
0.11,0.0035451330001592604,-0.0033280263800070644,0.22517206384454924,-0.00938354889834643,-0.000619931711097723,0.0035708416852688533
0.12,-0.009075971452889924,-0.0025623209730239746,-0.004796725268573301,-0.009118001231389849,0.0023243589300683677,0.00900374655788286
0.13,-0.001465596270404542,-0.0045716050934764794,0.010770951082028846,-0.009829993226547689,-0.010055353661182147,0.016913687559992285
0.14,-0.005697786480126768,-0.004935242210271253,0.01031822605611504,0.006542958967805544,0.00980429519009994,0.010680958429031186
0.15,-0.004377068970652833,0.006978305710927096,-0.23850130980477674,-0.009314052136893704,-0.020920538536218166,-0.0007050700779819563
0.16,-0.00632554940079438,0.021878884522895,0.026071115560572653,-0.020244568976063554,0.005305730882611706,0.003490637017083799
0.17,-0.020591121726794025,0.014600872362012997,0.03243871694697613,0.002197984261370245,-0.014295363394381212,0.009765900323176691
0.18,0.001745059379449302,-0.01425033328046382,0.041774815691381015,-0.0033524107559967605,0.014869254049997992,-0.0037167377528976838
0.19,0.0049540819899454875,0.009161703604222173,0.025783465833226285,0.008647156812733219,-0.0037359583944443315,-0.004353305079683183
0.2,-0.018237857233020086,0.005989149272029838,0.01470258134058651,0.009806052457807588,-0.01844985837271345,0.01643325000270842
0.21,0.002711778649846528,0.008376391615465103,0.03220246703919377,-0.0038838160597049268,0.02050303281853827,0.006296259850222993
0.22,-0.023819092917686965,-0.0030223903067927733,0.7374649527135644,0.012379556085061054,-0.011924760094750887,0.0007304714145218256
0.23,-0.010339023864967961,0.007078490440642795,-0.01964928176884279,0.011702183089737667,-0.014716214286321389,-0.006373826324668496
0.24,-0.0013640158851095548,0.017969422674836158,-0.012562410760199597,0.004319326879190296,-0.0010380841910877345,0.024409494328345167
0.25,0.007225278316954519,-0.006681165832251073,-0.05033654743643269,0.00468620788851096,0.006929368121187789,0.004530531332695795
0.26,-0.0049858633901759646,-0.005452623364752152,0.011427143825921766,0.003924458398757388,-0.015935760604103143,0.011784993360293091
0.27,-0.01121818628813211,0.01211392733731158,0.009599842975338384,0.002244721921974423,-0.0012747421815418056,0.015381938045122051
0.28,-0.02499250747547075,0.006139391988121111,-0.013927847817446893,-0.016224006495024174,-0.012266168451711525,0.010803735923659347
0.29,-0.0061852843195795496,0.004802609631578143,-0.003202670049076273,0.013518113664997252,-0.006761722573583188,-0.0015097101141680318
0.3,-0.02026576743063027,-0.009783086231875905,-0.017184564165396855,0.01749446738469819,-0.0006500800700769344,0.017359364063030215
0.31,-0.006105570934449188,0.0026723323911610926,0.0010536450599784582,-0.0009462150887316167,-0.002244745361251136,0.016502293835339334
0.32,-0.010444547119182144,-0.008730612558545339,-0.016452464859682988,0.002056080231680974,-0.0013376865796773836,0.000713303940197045
0.33,0.016640685668231858,-0.001762185554951945,-0.014292096152678914,0.0020159437226932404,-0.004448177034015742,-0.010555305593113637
0.34,-0.010546547272461836,0.00012910854053669392,-0.010814515217384853,-0.0021853919060604307,0.0048954035560947705,0.006439050155818768
0.35,0.011099608551175609,-0.005237571138335899,-0.011385734911035415,-0.005161530926021212,-0.008679256797885025,0.007459684251695092
0.36,0.005895591420541262,0.0060263651104200695,-0.0029639391229784387,0.006412589443075498,0.0010953949909502279,-0.015787207378777535
0.37,-0.007340786130408553,-0.002929813173102232,-0.014405392233030978,0.019663456730508073,-0.009397364016724873,-0.005879536301813546
0.38,0.019915583507653694,-0.004063153016139911,-0.01526351888916519,0.00036454779873603326,0.006478179366064629,0.0026151387918300828
0.39,-6.595875331507901e-05,-0.019633694924092192,-0.00838279851758714,-0.003006806732598641,-0.0049006868253188805,-0.020411763429526178
0.4,-0.005904846688877995,-0.003362044586123956,-0.004525811773620592,-0.008451623188306522,0.001021707078448762,0.008878975019711645
0.41,-0.00023725298204475896,-0.004133065112426795,0.007344088382206406,-0.00042258495207281505,-0.009157137249610042,0.00485939062156418
0.42,-0.005779736769881457,-0.016372341134676758,0.002330522690900929,-0.0013952835539523202,-0.009263591017034932,-0.01123264188042616
0.43,0.0010994152667373682,-0.009385214101002919,0.004116972872044794,-0.0010087764073754815,0.01637443947266589,0.014602560361799579
0.44,-0.01353817065403391,-0.0060292222947541324,-0.016695412759938258,-0.016006839498500836,-0.003338461194986748,-0.0015861545380576564
0.45,0.006678254306550424,-0.024583596958088816,-0.03919916144836409,0.006540891118761801,0.008355278300632398,-0.002702645491497689
0.46,-0.00431060275172116,0.009592731789906606,0.0001065532916273656,-0.0035003490047562993,-0.008848965608574547,-0.01038091632880807
0.47,-0.0010377577618072738,-0.0006139211114437242,0.001101640014877601,0.0058793223740965005,0.01630352597376524,-0.014731651334065657
0.48,-0.011212689166815625,0.02085477013791362,0.0034923910109528767,0.0015732749892840665,0.0035624862907214254,0.015558609876610523
0.49,0.003912941455925008,-0.013745430556105403,0.4329187423610662,-0.01175496270383454,0.010884268825487604,0.00708126139263396
0.5,-0.00813459360986981,-0.026183030713888694,-0.017150660164540955,0.003204887734356013,0.013959878026598952,0.0035264475395929973
0.51,0.012790920768340637,-0.010987569819910436,-0.03018456164106675,-0.010360934137181796,0.004068772202497335,0.012016052621870147
0.52,-0.0038430993489977417,0.004503024135705732,-0.03454033501348604,-0.00443717242684594,0.005608586042980162,-0.004007017667811948
0.53,0.0005881379841933968,0.0064972103488981124,-0.0220753317061857,-0.01559234105440852,0.017556583444760507,-0.002388862374285858
0.54,-0.0027264909009003797,-0.0032126331166672352,-0.025660067298910787,0.005759341133664877,0.013647246006119818,-0.007977491192780604
0.55,0.002631236141155336,0.017401438539544754,-0.036354144669117745,-0.001154831267103338,0.0009190698663244503,-0.01072885271360691
0.56,-0.03829022484382777,0.014551956167467003,-0.020700165561374998,-0.005095307600450407,-0.002725370835628637,0.009244022404672073
0.57,-0.013114357885773142,0.010041434071463151,-0.030727013473001587,-0.007197014107745757,0.008510100995358757,-0.018730820327386766
0.58,-0.005891144049428373,-0.0049265544564235635,-0.03289433804906771,0.006297176765407118,0.0036103420964940214,-0.0008565654704408815
0.59,-0.003932350357916173,0.0013586718107846112,-0.017526351200328274,-0.014737271383694394,-0.026658283062495906,0.00016083654958459585
0.6,-0.01508625944992687,0.0056299843478020695,-0.0055189327119547354,0.006911161500358988,-0.015142434750868752,-0.013121608573103152
0.61,0.0004766725062086575,-0.006528043112015293,-0.029909570174062622,-0.00898434123263188,-0.025218464376451477,-0.011152122930894605
0.62,0.0008524250623404908,0.011264105738430142,-0.4793035667185021,-0.006462140996807178,-0.01010271074365678,0.012823890216512045
0.63,-0.012291728962754732,0.017810028697004987,0.0017896330396409768,0.0021125010394975885,-0.007038580005755831,-0.02301370270129421
0.64,0.002905393184737674,-0.010659951500367965,-0.0013285840706127915,-0.006904483654589429,-0.002506840006527815,-0.012706856380427707
0.65,-0.006814583375186271,0.0022808927032696913,-0.0025883003443612175,-0.023754721226831046,0.00476696252055565,-0.011049889047089045
0.66,-0.016076394733621813,0.012026306729526613,0.005344515292927361,-0.009065634461119255,-0.012164106822203955,-0.00791233602205933
0.67,-0.0008500923650673895,-0.006559948796268924,0.0018936900432792395,0.003756534222724598,0.015072310200790274,-0.013554798030352264
0.68,-0.007658975453753682,0.0060163524764049086,0.0012906500316791471,-0.011003770060990849,-0.014277643882983424,-0.005023941533870728
0.69,-0.02294785182909129,0.014988501956223726,0.28307029390440475,0.005651471805415335,0.014918872628103274,-0.004039050145939515
0.7,0.006424603436879501,0.0025660081404643388,-0.03712587042792194,0.0053012397516537645,-0.008283852585162746,-0.012953267538532112
0.71,-0.005946348900143391,0.002079843477462806,-0.014633992635238938,-0.00794906149905127,0.00868608024058843,0.010240158459208493
0.72,-0.014604042429755673,0.008906829810561075,0.004890732556904479,-0.0011989151386365684,-0.003093108944544137,-0.02167306838059764
0.73,-0.005543743169087561,0.010246356545203505,-0.014637060410737056,-0.013621752556397596,0.008078013451034568,0.011413636379069943
0.74,0.0008403619019255655,0.0007838444051840796,0.005942984042719212,-0.0027176628774463196,0.005067100669488021,0.0028518602081133316
0.75,-0.0016514528514313866,0.003952818042673859,0.08608758942918608,-0.021833196023265132,0.003419214835807141,0.0032404896242725686
0.76,-0.006455783320641432,0.0002793397005770408,-0.01947661394538156,0.002634745624299401,-0.006919413988988241,0.0067752553299936505
0.77,0.0010082520535323433,0.014727688495516698,-0.025740997052490503,-0.023536582530045834,0.011757257182524827,0.006592809101050398
0.78,-0.00123702958459984,0.0007918266827488685,-0.015328072482048028,-0.004171079742151735,0.0031668051851141757,-0.025597028148789797
0.79,-0.014845932413296164,0.02064843986750728,0.11330677680454267,-0.004970314689596962,0.012315559526058374,-0.024556310218781963
0.8,0.0004387018392350236,0.002905780068841027,-0.034740609308765394,0.0022611889637249288,0.02358474486511805,-0.01496746726103269
0.81,-0.0047045507879660345,0.01976824211758204,-0.0333409159566274,-0.01825673941601795,0.014189100091917541,0.0003271812947336708
0.82,-0.0019822119413333856,0.005580200578901101,0.3908512065089141,-0.008828488182191358,0.0071169267783895655,-0.03410978863164306
0.83,-0.031956144836855715,0.028227737769236722,-0.06039277256394056,-0.016467643703508082,-0.0018545266493881695,-0.0040955905781718885
0.84,-0.01627329020794494,0.007783098880795274,-0.035436540219438935,-0.009787764435674742,0.007498523326699428,0.005993953162834471
0.85,0.002018894039520616,-0.002377252440983208,-0.016052913352678295,-0.02055626177752072,-0.004882361220354023,-0.013043356833893623
0.86,-0.005962364184318602,0.02421285221204872,-0.030512277764026312,0.006038722854017135,-0.00030739690696122935,-0.008999993713656063
0.87,-0.03444618761620645,0.018947282509816712,-0.03206512160063011,-0.017506067931185625,-0.004626982155966133,-0.004123855075505427
0.88,-0.0033369208248883,0.02850119622411716,-0.02276266996778427,-0.006624513540417192,-0.007622837079415944,-0.015830294882114834
0.89,0.007464444395587237,0.03182523518847105,-0.030851612753266658,-0.014853387401347336,0.007396905095486569,-0.005694359071817203
0.9,0.003725785205792819,0.008676850020673664,-0.011576500584470729,0.003327189309090344,-0.007823126437587046,-0.008042130352917166
0.91,-0.019040591881181394,0.024350379013555343,-0.0322952579644187,0.0039323103721886805,0.006479447157560568,-0.009629104748227596
0.92,-0.00306653792888733,0.01673195917013323,-0.05014217392107935,-0.02079538916386798,0.0006242949609639339,-0.009084766310280868
0.93,0.01237670230690744,0.028238290889217157,-0.03216276556751266,-0.010728478188274918,-0.0059360602130785825,-0.005383563697978822
0.94,-0.0025973344151735567,0.013324373660519282,-0.026821830242422198,-0.001940090949029678,-0.0001373725694004966,-0.0024365285913803686
0.95,-0.014211193299206844,0.00976471345809235,-0.021822383581291304,-0.01941266305389453,-0.004272675738260315,-0.0002580797420069494
0.96,-0.01593569583874705,0.02975518264083852,-0.032861524103857516,-0.002580062954147975,-0.006058297138493813,-0.009176365313158947
0.97,-0.00240866729337444,0.030617702971457335,-0.02275775095588667,-0.011711913967920932,0.0035740475383544378,0.0032757006132608712
0.98,0.013083777883162905,0.023949845286532906,-0.03958996712288621,-0.0033640134005681714,0.006757814112949079,-0.016027894752448663
0.99,-0.020229261228115428,0.014118137765738798,-0.02518824945397651,-0.013216984951460533,0.0019267664068171536,0.027079689463483658
1.0,-0.01496432955838017,0.02419306745180254,-0.03030879433059215,-0.01309085384823229,-0.012894522414142559,0.006581185890737249
1.01,-0.010852271070991307,0.037786718775253525,-0.010995032742318432,-0.019088846434998957,-0.02353799394448663,-0.006839573272686761
1.02,-0.015527827889721103,0.0497311603865354,-0.009344599595674706,0.001785402457318487,0.013278554067298793,0.004472602974340609
1.03,0.001611912055073621,0.021331609314818104,0.18908835564806145,-0.0002623487285512531,-0.014137642873370423,0.007084601646113739
1.04,-0.006580839602667799,0.02772264213586183,-0.036436698033941145,-0.002495535606507811,0.0027085626521908285,-0.02165404263635281
1.05,-0.01133207605901085,0.04473310168873525,-0.02294049823074601,-0.019735880934152798,-0.028229937136315407,-0.0007985533191279806
1.06,0.009668580152823215,0.02832078620757909,-0.033231698657669395,-0.013429151173953324,-0.00247865312623141,-0.0034931584659149443
1.07,0.01628932514788958,0.031493949255296964,-0.032850026788230485,-0.016802022092836474,-0.018626261889529375,-0.009149698733609333
1.08,-0.004806358661204206,0.058462275418891,-0.03926109014790305,-0.030642889180303924,0.012507745152663662,0.0016902124046351153
1.09,-0.01594198032057185,0.02921250816036495,-0.0396155465255682,-0.014217431639584315,-0.007696671784807332,0.003920965629670214
1.1,-0.020670431834457652,0.0420956544764536,0.24860928270318605,-0.016116415787622462,0.008930942448120795,-0.015372885421113935
1.11,-0.024414952546227473,0.05173628003379033,-0.04703493461222978,-0.02855922261113831,-0.01202119727927331,0.001727996890792176
1.12,-0.016455946078861347,0.02586593173191474,-0.05150365430647957,-0.00042650198367301037,0.007799480585852524,-0.004546157668646505
1.13,0.017395353867794325,0.053259730654521095,-0.039486032985324125,-0.014258802985790887,0.0029188109657537677,-0.022984147512820387
1.14,-0.005967776348568963,0.03752577519374342,-0.04406426694756332,0.0001321087076497033,-0.0008993519238648744,-0.010525029355427595
1.15,-0.01465775417766621,0.03833741679062851,-0.03960537725030091,-0.010565337550829192,0.007552816776205675,0.012243298387155238
1.16,-0.014804145965961205,0.04288519752043721,-0.03689378956192457,-0.01784361845516147,-0.007054432966998301,-0.011816732477250133
1.17,-0.009166796555424985,0.0359313025496143,-0.04012300049947063,-0.01986501843978305,0.005132575861190136,-0.0051428854533285785
1.18,0.007405064164332226,0.05833501149903595,-0.03554296870577677,-0.013768306460595412,-0.016206145196335675,-0.007583990343211591
1.19,-0.00494400123567372,0.03212691459396548,-0.039010163003393446,0.013678236094963957,0.004924012639295686,0.004707845701169791
1.2,-0.014009109956842404,0.05755758479423323,-0.052119498373949455,-0.008730171511034179,-0.009343372605628708,-0.024209672936549957
1.21,0.0023098218811971796,0.052808544623057646,-0.041260833324206166,-0.00493055297567363,0.0036591922019638245,-0.0021467245435765536
1.22,-0.004753435358254138,0.06873489510195298,-0.03296794787279554,-0.018308911932487713,0.004545456399307736,-0.011685472868245913
1.23,-0.007851191836465266,0.05772406377884159,-0.035639932159402345,-0.007982667988887394,-0.011927155538266749,0.0024948944458105804
1.24,-0.0010450490761452086,0.06949575227794083,-0.01843979661828432,-0.020236997942827427,-0.0016493920950750689,0.00553480657723687
1.25,-0.001696741782520226,0.06043606927463411,-0.039744927487828055,-0.00662588727285976,-0.010837674719785612,-0.011017870148449661
1.26,0.0065652630970900695,0.07767487965403519,-0.027822313217738,-0.005257357375169773,-0.011724911050647095,0.017941368371226337
1.27,0.010253409751746293,0.06879263541150366,-0.034558869106812405,-0.02701561138044987,0.0017456780720384209,0.004299397462394655
1.28,0.006715787610170533,0.06737860717393504,-0.031570122645195466,0.009760058386117685,-0.014884061391261484,-0.013387787966139535
1.29,0.013455212460142904,0.06569576931727775,-0.02629203693079178,-0.005174300131630073,0.019350464995424782,0.0075269090950870685
1.3,-0.010527554300290435,0.056253194780544614,-0.9399601545896019,0.014590315693809476,-0.012066833501151553,-0.0035060269624389746
1.31,0.0006382700638630232,0.0616550600519732,0.0523093723858457,-0.021924427913923517,-0.006868007619446941,-0.01579187841183565
1.32,0.007255617558872426,0.06533482019826366,0.008330819568886098,0.008470734959912267,-0.004298788862957566,-0.011551814975378315
1.33,0.012407526181634921,0.05751625892701462,0.3171928347909635,-0.017864448825548655,-0.0257506569562436,-0.004181425725168625
1.34,0.011530180319458506,0.07812136802362944,-0.012620243699756124,-0.013629954737503547,-0.011784138830164326,-0.004366453739108662
1.35,0.01025643933622465,0.08420205639907788,-0.008493414833782586,0.01319862733093458,-0.0034564072295965977,-0.0034786059680747793
1.36,0.00046748080200228505,0.05141473832888368,0.001801851228465894,0.00370752056866727,-0.0006276759480730873,-0.011287381080630238
1.37,0.01339574783809953,0.06560404106895724,-0.017870489458960453,-0.018176217116664697,0.010835755002894541,-0.01966087083364535
1.38,0.0074676512225093,0.062250193873550616,-0.017126853707635253,-0.001937178571547903,-0.015537166438850655,-0.005423971879048034
1.39,0.010917002689305351,0.06529752044657279,-0.9241111745166448,-0.0038432371542925147,0.0016639225976639894,0.0025171559135096382
1.4,0.004288889589393876,0.0829071218312324,0.04103825715319688,-0.01471716155908197,0.009933227824507597,-0.01142251827693665
1.41,0.016121317973209367,0.060569853388525566,0.01875675123165024,0.010375958235443409,-0.0015275745282381952,-0.012206323973433969
1.42,-0.017416996572397203,0.05423609318563767,0.007834949827319155,-0.019165414749143236,0.0011319480676825824,-0.008934496528214174
1.43,0.027499544992310842,0.06918598415955984,0.006088308670950582,-0.017128431645525202,-0.005911795548353534,-0.006209422242681617
1.44,-0.0003861052385573348,0.08544211038181114,0.0027247171305585394,-0.001679424624169524,-0.0019473612778734275,0.0032535996063056192
1.45,0.002034931758667798,0.0693860288060517,0.005961510190945664,0.006557210553224039,0.0029894965426228957,-0.0047826323090692695
1.46,0.0033874968712798957,0.0757503420054418,0.026911828638738235,-0.01614766015391422,0.015221974984674619,0.0034868160816587967
1.47,-0.0017050974995072958,0.06344279200264721,0.011134717948144931,-0.013840787830758918,0.008659700677071985,-0.006683627699851565
1.48,0.008778832440260254,0.0749652636147109,-0.012067796786361832,-0.004950904896350089,-0.006140280020155886,-0.0018819468584779868
1.49,-0.0009317275149388505,0.08804094128269224,-0.014722397009690955,-0.003213334600052576,0.011492317307841948,-0.01740223714209182
1.5,-0.0016274338615881439,0.07534594106075222,0.011783165376691388,-0.01677512574186951,-0.016960853844568823,0.0026165208379673593
1.51,0.021758371096150933,0.0930350430922488,0.06788165232081257,-0.01973225765556134,0.004934059457549963,0.007039760199179551
1.52,0.022356573804740536,0.08442383110353055,-0.005515689337598648,-0.004053358318782336,-0.002309112537243864,0.015271013909367404
1.53,-0.0026735343121000368,0.059694410340084755,-0.00213352700826528,-0.024854524240526164,0.001968413043026619,-0.0016385683173466311
1.54,-0.0013916274029621787,0.0779216514139279,-0.013740875620443481,0.004324100987020631,-0.004329074674086586,0.014081293428365772
1.55,0.00013738011808941356,0.08103702428215633,0.0032577481406161285,-0.00010247797930480057,0.00826752279070588,0.022766771993641056
1.56,0.009244972312835683,0.08623309797156269,-0.015035423986812048,-0.017104727378195746,-0.010751205227396542,0.001319273735979981
1.57,0.005624794470181835,0.07371419183496794,-0.5766519982880052,0.007440632841918995,0.028716180539517987,0.0039037955120013604
1.58,0.013077713327555564,0.08523641636522748,0.032653289256596,-0.02109675596136916,0.0077426956947177555,-0.0084978300119255
1.59,0.00046477245085082067,0.09046208115536478,0.1766075311810593,0.0029183800394152123,0.0019514181818672631,0.012359135715802069
1.6,0.015833952274785013,0.08835725424623833,-0.1625322856001394,-0.02673660844296244,0.009413067655500876,0.0021381910369720186
1.61,0.015965017660516685,0.08497937170375103,0.03420004722733543,-0.009521567199812626,0.004497844121379152,0.008283386048949
1.62,-0.010978305882132056,0.11168355889389964,-0.009740996586632841,-0.00011737716141464391,0.008134338296665765,0.012128802991478945
1.63,0.008271371253477175,0.08035289186520601,0.007829952899849646,-0.006760732097746855,-0.003826795688007657,0.009930659884153238
1.64,0.014256330404912617,0.08520149957779531,0.011314580851459803,-0.010573040304059539,0.006018212988428722,0.017512446971786607
1.65,0.011019101240913239,0.053226879918852756,0.02193284740116884,-0.007974989940787184,-0.021867579109838865,-0.020179374059647405
1.66,0.002487178797919435,0.08544720560987981,0.011408704174696804,-0.01372427034958722,-0.007057908262553201,-0.012286916639619045
1.67,0.01139560488209275,0.08175885843370383,-0.37011791741668565,-0.005468739350077626,-0.001521741027257029,0.007102561290618896
1.68,0.00849970184616523,0.09193540035927789,0.02385424032333468,-0.007374828119172045,-0.0011706690844491023,-0.0021036508573044226
1.69,0.026168858565960136,0.0870067701995715,0.049373738344647866,-0.022758772774235304,0.006153650208548966,0.01498292899491439
1.7,0.007732331563917925,0.10535601151333232,0.019206462572687794,0.0010895917398401397,-0.006118613354468082,-0.0031568981535766557
1.71,0.008828014324468843,0.09202107725730926,0.4275488771222698,-0.006357798909437861,-0.0057109911477967075,0.021153224062825073
1.72,0.0036841898640128123,0.10188469292998228,-0.01008509673544812,-0.017107981806768563,-0.0021408958594310223,-0.005821463929118068
1.73,0.018895095883053905,0.07133871137423362,0.008118048780074308,-0.01758949793172511,-0.0015199988022730065,0.002926523091999692
1.74,0.0045856924088424475,0.1016528917451727,-0.0002621321118720847,-0.014071716835217109,-0.017437075620412315,0.005264388201968145
1.75,0.00014709197960995502,0.10453281142352835,-0.0014617653013876538,-0.03660551403876361,-0.007665327593749761,-0.009731806717054006
1.76,-0.0089151498095344,0.08850482720745327,0.01634918626025518,-0.01652250008035945,-0.010070591294382966,0.01616515341404718
1.77,0.0009196655103765406,0.08509995013188346,-0.004001517643086461,-0.012749157998544723,-0.0003642821036295117,-0.01964861107874257
1.78,0.010144931350584682,0.07913181392494417,-0.017418528834257686,0.00906940922205093,-0.007450155406123606,0.004685404433366217
1.79,-0.007397322672338773,0.1074922534348236,-0.0023534823484815956,-0.023173682116778768,0.003287480189337935,0.0004555246655586448
1.8,0.012802026116289831,0.10754944796331396,-0.011661073194617334,-0.008415675742078615,0.0032602737725586015,-0.002105310657737112
1.81,-0.0007930311630685184,0.08682720733179772,-0.00033855887362522477,-0.020634775862598917,-0.01444340255409311,0.003984910327718899
1.82,0.010109260312519592,0.10848080021364916,-0.0071650678743491,-0.019998901891469856,-0.0018671457997262372,0.010622273617670954
1.83,0.0037510047760489426,0.11780454333014445,-0.010452636072505342,-0.009205294577885579,-0.010511578670031815,-0.0009667460517123268
1.84,0.025300908549215177,0.0982846684033153,-0.0027556024035926495,-0.0005000308262198879,-0.0019204395246752775,-0.0016470265492047435
1.85,0.02922413187353194,0.10329381596904562,0.00583368138845119,-0.023718345830231732,0.004492761104930946,-0.006367004121346311
1.86,0.006377197633771405,0.1283497051977406,-0.011577916527420237,-0.0044990900264264486,0.0019977509032353116,-0.0035355162321136953
1.87,0.016200184088577388,0.1275072746036978,0.005122742943408046,-0.018697008906917292,-0.008242176206704558,0.019650355703713925
1.88,0.009639744680035083,0.12365658478648313,-0.011830613099284303,-0.015695653438888058,-0.0009472143793769958,-0.007796538073381048
1.89,-0.0027739052989052913,0.11278616458259241,-0.01108204221996581,-0.02659899340276499,0.010241927211419508,0.0042183278728484454
1.9,-0.0043126926019424645,0.12562518542061735,-0.012591412640586039,-0.007841955648654801,0.0004905320799576084,0.006265712289656734
1.91,0.017274514235325056,0.12309043152937713,0.03527289591464723,-0.010942160349234814,-0.011411658493211598,-0.015427743386793875
1.92,0.007898954440203752,0.11223304596631149,-0.011777807231397451,-0.02229273135471444,0.0066314509103708365,0.013486032236115756
1.93,0.009494257628527243,0.12587715048535603,-0.022168260271149424,-0.022814497507772574,0.006623013944638132,-0.0071363180266464646
1.94,0.008374026519376108,0.1323320126926903,0.18162668371509483,-0.020905541736579557,-0.018608417785742147,0.0059866599248870125
1.95,0.010195038240057954,0.13520085890661257,-0.012724806521080809,-0.024018885793381364,-0.022342588827968107,-0.006093775832344102
1.96,-0.0026871016655151403,0.12016162836679556,-0.02149653019877424,-0.006122996055660818,0.00274029144223561,0.014857524632713351
1.97,0.005895939916651514,0.11675518290538928,-0.015133284840301983,-0.017135182466570528,-0.0016427612609479694,-0.010844717521317966
1.98,0.013221258712579726,0.13370497212193783,-0.2172140463161471,-0.02324672834659821,-0.003369690063718377,0.01693042297819263
1.99,0.014026862519923288,0.14762181697259555,0.0017204045716014997,-0.016469804282395188,-0.018260224377278273,-0.011030193130820405
2.0,0.023620644916657395,0.12142640477198664,0.0038792766746204967,-0.035495603305055634,-0.012721868432615106,0.012379687564651787
2.01,0.007573235282991629,0.1370378758644515,0.13482063604987293,-0.019009839901125234,-0.019397336718976046,-0.007707359271091384
2.02,0.036965684991699554,0.14037032114722287,-0.08606634483042612,-0.013855832185463312,-0.006590876360902669,0.01855755449766422
2.03,0.017441958231711407,0.1531286462785726,-0.017149107191415477,-0.015715494425506488,-0.004299617470205742,-0.006388885258399557
2.04,0.008245223773297365,0.1445216873713118,-0.018246632462601123,-0.021728056797546913,-0.013311495813604801,0.011698517712566407
2.05,-0.0021483987402240168,0.13336920130405786,-0.032900319216540116,-0.009385062637649941,-0.01408589733645101,0.00587746265828169
2.06,0.025250432376905434,0.1404600255859475,0.0013350629660195054,0.005915036470735435,-0.0076674169441748475,0.003042238634555114
2.07,0.014565421924270742,0.15029342644334637,-0.03224292279390819,-0.01103196996708547,-0.006932095976122427,0.013304039168128045
2.08,-0.00747876437026385,0.1507310784333579,-0.0036554458770136807,-0.006849893290592124,-0.016702589041117582,0.020893610236252965
2.09,0.02848838140647319,0.1473839611563144,-0.02465869869966921,-0.010906804370343408,-0.009084564550534587,0.0021009458978022274
2.1,0.006775577459168156,0.16215948847886955,-0.006146176545205938,0.005591190038804401,-0.014479307414199422,0.0036526581139379403
2.11,0.032175307031588926,0.13678901546540806,0.005984430933589156,-0.011574617747396628,-0.008051355109975518,0.020040724221423264
2.12,0.02513907548710311,0.14636545438909157,-0.016441618668534646,-0.006433450948264507,-0.021761489425668794,-0.011225860398184
2.13,0.018267731686456304,0.15243154521760555,-0.010224322462633547,-0.012486256336533262,-0.011026493784184391,0.006559045398391485
2.14,0.025016462721385965,0.14707392385357865,-0.020460029761337897,-1.4752801900970794e-05,-0.011022432261360272,-0.00882600496205575
2.15,0.025588493675357222,0.14382596390476976,-0.012603854155093974,-0.011033176636076194,-0.023150645691199352,0.006109091871231428
2.16,0.03945866121780481,0.1551697427990443,-0.0011605894512314013,0.004554829672421257,-0.039529244931936235,0.016917175561173493
2.17,0.023905995643755472,0.14548690904736572,-0.022836692147455925,-0.02346597617483221,-0.02611942395542707,-0.013952523022365649
2.18,0.04565028237407287,0.16687263775461872,0.8875881526518247,0.002839629141528936,-0.01930357213787388,0.017121693695117506
2.19,0.03389124615769075,0.1772311996952639,1.0827388322289135,-0.006932900133572308,-0.022009662308174548,-0.0037468316791395995
2.2,0.04438269118491235,0.15733347289675506,0.030194266311914655,0.006346223059072809,-0.011004227963732353,0.011997640600021814
2.21,0.04696045238894133,0.16123706023702786,-0.11538370539599535,-0.019759699090515413,-0.030328361114195082,0.008323431406902792
2.22,0.059183941455302036,0.16199548933411853,-0.10614479334208908,-0.020447689653606566,-0.02348421011884592,-0.00933957995453842
2.23,0.04000832801692953,0.16265099305091846,-0.24910572879482035,-0.004182279856884471,-0.008455672400455782,-0.008370270174864086
2.24,0.0475815666929093,0.18588347160064703,0.6319658802692865,0.006940309552300945,-0.02280497133344314,0.010752723653533188
2.25,0.06013375972422694,0.17271366396712423,-0.11601858622097223,-0.0071610267470572685,-0.008450736923615235,0.0212868379335606
2.26,0.06197896450115288,0.1685327210695475,0.4089813103207025,-0.017513180597407477,-0.00433002089542005,-0.012407899709649265
2.27,0.0469996842051979,0.16128649947747203,-0.14252147388786546,-0.010996205085188959,-0.010671925996676384,0.0309466655496395
2.28,0.06775315864874379,0.16094795202673365,-0.11718539156179372,-0.013524599739554975,-0.008506484086917628,0.02308979690192714
2.29,0.04152437129234786,0.14617413674965435,-0.09052412889091588,-0.017165075437340315,-0.013357248513810007,-0.010820853828189956
2.3,0.07018186520129904,0.18088473531169819,-0.08161328221243305,-0.015265137574642287,0.012525296425235083,0.008920360160175767
2.31,0.054824499060227995,0.18524845752668834,0.3544855398376569,-0.013604248571095717,-0.0044968248135612895,0.02261871387878449
2.32,0.07272845314957217,0.17077919573659583,-0.11177995562007725,-0.00025178837256341,-0.003336746277524659,0.004907787987099249
2.33,0.06301387270172326,0.16667891980119934,-0.1051236576570377,-0.01945634513746293,-0.004376500271435744,0.010087800611091113
2.34,0.07298500220490714,0.18850389429920492,-0.08806416767751132,-0.0006833286238447193,0.010047171088671755,0.011679968066540874
2.35,0.07120723801596905,0.20146646686645084,-0.10768916634400837,-0.0064201073830624745,-0.0019521564812095581,0.0018050693465455465
2.36,0.0517271274989642,0.16163430943522725,-0.09756201388846476,-0.016531779755698868,0.006740723822504877,0.012844068508556822
2.37,0.05512698266551351,0.16498336811244904,-0.10199123574007249,-0.03017840717597875,1.8009632918651662e-05,0.005844867873202464
2.38,0.061967453472527564,0.18280094718645237,-0.10329734132100374,-0.03833668341858231,0.0035268073726015506,0.017524938332512525
2.39,0.0608872337234713,0.1680184733347776,-0.09432457550906298,-0.021241222329125932,-0.0027456740073305234,-0.0062144799223665635
2.4,0.04695662546491993,0.16989294662009297,-0.0858055151079922,-0.013399884146277276,0.008715551754304938,-0.007332826213531516
2.41,0.07257675930483494,0.1669640043664431,-0.09693544844609348,0.0027640047391651185,0.011834652154656476,0.004152637641347913
2.42,0.053114430988503034,0.16662888407799734,-0.11026354276276992,-0.015347268784855282,0.013253516242433937,0.0009640194132958813
2.43,0.06068474396025142,0.17283794555119775,-0.08322238758506044,-0.014498455995761429,0.004084912516556144,0.0032823131123742005
2.44,0.07159896468416109,0.1868542389807159,-0.08185660016602983,-0.011032680980918237,-0.0021034200549206435,-0.01369775541314754
2.45,0.06718074047540265,0.1836400675055208,-0.09206130671441147,-0.004711010139443703,0.007358572069144534,0.006678296258584215
2.46,0.04213067576648465,0.18778468911414573,-0.06274913097202467,-0.006751670501605599,-0.0009349802992733901,0.006093675284131147
2.47,0.043309935803653755,0.19861337711853055,-0.0837871352029902,-0.009029867345126499,-0.0025221215567821278,-0.008447881888805015
2.48,0.0605452581139742,0.1972001947195346,-0.09269871609629271,-0.015577744445750271,0.006357847954547281,-0.00175051449704866
2.49,0.06166773800640877,0.16748502822225542,-0.06342678238624666,0.012091382320307214,-0.0043084743855803034,0.000287110919090759
2.5,0.06152220279541431,0.19539216182582797,-0.05959664637709487,-0.005170444970236076,0.010964343978552032,0.012683926603211078
2.51,0.04868589737130688,0.1851851829125583,-0.08001838222734703,0.014494243346595692,0.0013186123321526364,-0.0067094699630732444
2.52,0.07322007906217319,0.1765346639367651,-0.07766467649561119,-0.010097097860049701,0.01155101607033817,-0.00598034536475544
2.53,0.05858833868647925,0.18876755947979496,-0.06594994195990021,0.03363163427469216,0.0009643570390364584,0.0010297848513175045
2.54,0.05904314988180085,0.1786460969502327,-0.0714276489023614,0.005821452863052813,0.021609402007759,-0.005127555135984202
2.55,0.056754841586847064,0.17865704641276578,-0.05947479257708922,0.009103387351692851,-0.00478163240631909,0.01105335824126076
2.56,0.05354109373496532,0.19180876731852747,-0.035124388205882616,0.01440332254052345,0.0011257459374445144,0.00014610910124671084
2.57,0.0343097360716052,0.17380482776297168,-0.05594001377175988,0.010937860191919854,0.022340163205209488,0.0006338568294584913
2.58,0.05566174628518008,0.19301731669492533,-0.06497624023540564,-0.004169193574775399,-0.021203082872048237,0.010346778460098337
2.59,0.05476651245127062,0.18689619321236642,-0.05454078727812676,0.0019621232746075,0.003933076376909034,-0.008429336506658561
2.6,0.03734553016721598,0.17110120898989445,-0.30424336185184464,0.023257309542061746,0.007512819987928246,0.00152598928418618
2.61,0.04853334804212804,0.19434857297258992,-0.04557837628535941,-0.009095788454891843,0.008560477302609108,0.026704560833271992
2.62,0.05379063393231699,0.2014446613190873,-0.06903015620618048,0.01221809098151251,0.007558285991284249,-0.001546059158401546
2.63,0.05044936261034121,0.17344794858239637,0.11271327472167923,0.009954986267071354,0.01466326801674306,-0.0016928964519930308
2.64,0.025841025623256946,0.16893546555522895,-0.05431849065832427,-0.002957280851985787,-0.006804564621531154,0.0033617983919489035
2.65,0.039713711296296965,0.1769427864631177,-0.04276302192393893,0.009469755940137839,0.005335328486028477,0.015193159029048733
2.66,0.04451134748586127,0.1747614162919157,-0.054117483358626824,0.00022609004849466572,-0.023031774421569118,-0.0034659731031868976
2.67,0.031084085091455656,0.15964086780461995,-0.07172457204485008,0.004830501687392164,-0.0007680775505342083,-0.018117242889448194
2.68,0.050018449806887175,0.18672736907675627,-0.06312828347280865,0.0028882585627103816,-0.0018000240562882526,-0.009928497044240639
2.69,0.056141677585414884,0.17487838305787679,-0.0509920468372803,0.005428474845539716,-0.013816913253403345,0.009332821620717231
2.7,0.04766691974572253,0.16958311246278424,-0.0594856811740814,-0.0072270166530648714,-0.0031787280289739955,-0.008220056936642997
2.71,0.05410336298546649,0.19125167273799187,-0.05190201009645893,0.004559690368899639,-0.03240513501205863,-0.01772927401626732
2.72,0.043257942642147114,0.17722184169620758,-0.06403704996324724,-0.010457090857247008,-0.015085189969628023,0.022035387721738322
2.73,0.06514664131792514,0.18131875560421276,-0.6581833186087455,-0.017052529765032014,-0.009913588986508515,0.017365958873762556
2.74,0.054853218476748705,0.1741641478759991,-0.26657247614988966,0.01519903777264231,-0.013009696987335381,0.004892492951859053
2.75,0.05896572890983567,0.19443222890603118,-0.342041885406841,-0.022876286722754168,-0.012759653318000058,0.013111508013281897
2.76,0.06350526062001106,0.1755988775008944,-0.006439294176613321,0.00997435514523752,-0.011812716670405852,-0.00466550670789824
2.77,0.03812869428406928,0.17699589737902693,-0.08754176733721573,-0.0009396936120424646,-0.010116690635168395,0.0021704694640138685
2.78,0.05037618985829233,0.16614088744740815,-0.002649350952562882,-0.009437523068184298,0.0022496130590236793,0.01887367600341859
2.79,0.06579252919764898,0.19392895264796575,-0.012048311481561344,-0.00460859757786883,-0.013420060770361203,-0.0007663968839622844
2.8,0.059860924690246786,0.18058755323526599,-0.00106629293422801,-0.0008697625479157722,0.0017154050446932982,0.01880669766900405
2.81,0.06233403808748016,0.1901258367525265,-0.006925411157022811,0.0010836756237304485,0.0008860261745758866,-0.002118290938451254
2.82,0.06153452896967173,0.18062459872529843,-0.008012206724780539,-0.0033669016077727443,-0.018692688041585137,0.021958864594547163
2.83,0.061216951206481435,0.1747871477806131,-0.028789155658689822,0.00675492336735667,0.02077291421092697,-0.007271618950604429
2.84,0.06617126506858412,0.18803064290836913,0.022840727805405775,-0.028107365803759107,0.00295295509514588,0.012260085205428855
2.85,0.0688896740295083,0.19166094685686022,0.49517048817180126,-0.00854159755700383,0.007884231277628221,0.012046450831673926
2.86,0.07581784563789717,0.17193772191690732,-0.06126909123087611,-0.000831915603258843,0.00185392149387961,-0.007507547433415937
2.87,0.0675118373668955,0.17985069747941956,-0.06227815279438037,-0.02598416911667442,0.005864974106245399,0.01358199671979857
2.88,0.07715138454626547,0.1976790627504716,-0.05082597905697308,0.002756597750057035,0.0044512922790568114,-0.005431379517062551
2.89,0.04985813993944242,0.1697897942028897,-0.03388460201583709,-0.017405598166247524,-0.007088998689621022,0.006918438420330932
2.9,0.0531395874335338,0.1825170013353243,-0.03419900546985114,0.013539799687393108,-0.002371533412166179,0.014877783881742298
2.91,0.04020215714219437,0.203238614509273,-0.023525657643797195,-0.008186299142801362,0.003964981406759433,0.01111004202081523
2.92,0.0481368954268216,0.21028037855483026,-0.04390088336586435,-0.008001461225887057,-0.005153666987614245,0.001447978077244792
2.93,0.0731338969226489,0.2085847755629952,-0.027835237980347968,-0.006812006732761502,0.0253461484477959,-0.0010066854999359444
2.94,0.07308901485640595,0.18740940634506154,-0.03341586129626213,-0.01597019233701939,0.019229646465524143,0.007699426178962006
2.95,0.06179574320097835,0.18198905300095217,-0.027775920184820953,-0.014747866461545944,0.010973638913113742,0.009081215898665472
2.96,0.05405081915313324,0.17921042281687194,0.17786868061827463,-0.02095357121119796,0.00034838097327424215,-0.031104493252370635
2.97,0.0603260712253906,0.1709926612902756,-0.05213294753528924,-0.005220993472376393,0.011157070707409797,-0.005265953586332372
2.98,0.047424134458798846,0.18792912254935956,0.03547638614060457,0.01014245106364981,0.012689490538709583,0.0012680926994839028
2.99,0.05177051263768267,0.18909816853130146,-0.050771705277275814,-0.0028742668362432408,0.005628141130139228,-0.016168929949028295
3.0,0.046947666523388866,0.2018073154223056,-0.04082836028758018,0.004971602095283779,0.021433660469672808,0.021348096659387375
3.01,0.05021075356914144,0.18924464169714444,-0.030371541916117305,-0.0013139732388680846,0.009392419163153561,0.028338207323421516
3.02,0.051687671749654496,0.16602973268196305,-1.0540121483925933,-0.0019488520298894855,0.003647806806417814,0.008800764903061564
3.03,0.037742574823654736,0.19978446945261785,0.029864288799508882,0.006482704745508829,0.0035059381160701467,0.0032884614176900873
3.04,0.06494925916378488,0.20810658138139063,0.010462556719499713,-0.01501327164360492,0.03395552914455646,0.020249784778341447
3.05,0.043346944905556066,0.18807928995212994,0.01685028338963451,0.005347137689988554,0.022602209268884985,0.0014932513854939147
3.06,0.04480208416352145,0.23597404869372762,1.234275109630952,-0.012392529248072994,0.03160407590824275,0.015186453127622533
3.07,0.044690454266485456,0.20308743488405934,0.03128432332187885,-0.007500993347206655,0.02933672354626084,-0.009891076357245735
3.08,0.026389942449096742,0.19872076115807963,0.23755711408719177,0.0031478068057436788,0.012302681400668569,0.006498958073847384
3.09,0.04071206663645061,0.1869765280070427,-0.2560462459650481,-0.014795300818998575,-0.004834638656889122,-0.02246886622570462
3.1,0.032195695544488326,0.17927229305019904,-0.06197722239495912,-0.02607870956688957,0.013753713251591146,-0.006230166666522345
3.11,0.03547562554806685,0.21064361117045685,0.9009927050986187,-0.01791284102406627,-0.003596801292525241,-0.00495068063884946
3.12,0.046076953580572,0.2024295878678207,-0.1184190077383174,-0.004448312628654846,0.0026599723724519933,0.004374696774086063
3.13,0.011223303073194045,0.20097934834181191,-0.10108748549456827,-0.0037689483255609196,-0.01035039740171404,-0.0088188470965363
3.14,0.052460128421158235,0.20070897241517655,-0.08501169774521716,-0.01497127751804098,-0.010145099615505065,-0.0039556068223417125
3.15,0.036804583561847876,0.2153718997542238,-0.06809668368981431,-0.031177038929121118,0.009179863843787554,-0.001575991581580545
3.16,0.036756543023059564,0.18206851966947413,-0.06418489449447799,-0.0246192898401248,-0.016387683175119804,-0.02437291912963633
3.17,0.03393328465063224,0.20522264801231205,-0.05708302682511002,-0.017519377790872384,-0.0052135482393831966,-0.02588411819869609
3.18,0.052375999961378254,0.22674748056035077,0.8506579128182031,-0.014177231946452293,-0.0007276506140228411,-0.0214980813595367
3.19,0.029176448618921914,0.23178681027118336,-0.12010991987539014,-0.004378444825237948,-0.006956499963386,-0.0024704950362109384
3.2,0.03536450811000432,0.21365324047405831,-0.0978779491971042,-0.01938686758838397,0.0012665521033868987,-0.00010226915430912656
3.21,0.04329549954799038,0.20737545246491798,-0.08599558791099807,-0.013530323335741312,-0.012145784344886754,-0.006089935862519646
3.22,0.053445885820666186,0.21596322611629973,-0.0995586744879347,-0.009818275243225868,-0.0062643583726427945,-0.012919685924560793
3.23,0.02844123038925984,0.22374237942390715,-0.09433195620154292,-0.015147706466957879,0.001254715116684727,-0.0043323551642590555
3.24,0.0401053419273067,0.2261241610306079,-0.08103097491787298,0.0030054883375637354,0.0003908908616975489,-0.01942255681014244
3.25,0.03974594825695836,0.2332829906538185,-0.08647336099307183,-0.0034849757971263454,0.004813293433961827,0.00585026259962991
3.26,0.044012657338045116,0.21611805398445155,-0.08698613707900031,-0.017584296530150124,-0.015591485893068982,-0.006169591053020121
3.27,0.04873120871057231,0.22958364520567115,-0.08290454320795464,0.005155805544198189,-0.0160157396316499,0.005455141131694832
3.28,0.05282866819587613,0.21164579973550957,-0.09405261776392218,0.002409836944091654,-0.005195868371520949,-0.0161697488853318
3.29,0.04306522147337976,0.22584017810624016,-0.06782049086592776,-0.008380102453884753,0.010718744967059657,-0.0015002529697075366
3.3,0.050240906628411616,0.2073461338648653,-0.07932373526578183,0.020664095192630252,0.019639783860748536,-0.0014465199919348514
3.31,0.046980450369383975,0.21778890863926847,-0.06309360134698369,0.0141221267145832,-0.011084606983202667,0.006424034642834354
3.32,0.034674666995318584,0.22232560053648526,-0.19139194562550033,0.013141043145110191,-0.008139804555733689,-0.0052972745232464
3.33,0.05027686393349069,0.19832435961106984,-0.07175052706031775,-0.005424689236129656,0.0012470518941527318,-0.007369461784956546
3.34,0.042855792502591195,0.23215483201361642,-0.04104333906568719,0.004147869598528409,-0.009395504317142044,-0.014123667594129493
3.35,0.05010357206335353,0.2163330831612824,-0.05762363335144954,0.02477950303598899,-0.00807102646968385,0.008429076446003363
3.36,0.04041679556841515,0.2311457866350126,-0.04208830026582877,0.007233071061631681,0.00027396039316457226,0.012069214259778917
3.37,0.05604979039220402,0.21816410860830762,-0.07357623688761895,0.01984730898799383,7.27154702876865e-05,0.005718709650697309
3.38,0.027840814188266234,0.21473725916646377,-0.0932973289129019,-0.016144545611717454,-0.0045736606106322455,0.011352032123960215
3.39,0.05246107031625641,0.223030863575297,-0.07722958625815206,-0.02389948157533168,-0.004480343375820145,-0.0107282318873067
3.4,0.027494806174805778,0.19933125680979258,-0.027267049902044812,-0.002309660589774728,0.009439011606523572,0.014719962286920279
3.41,0.04438783447454074,0.2048343398039086,-0.05131971033704934,-0.017417514465046184,-0.025026457507555378,-0.015367223582069585
3.42,0.03031532351922355,0.22066565235019506,-0.13635960839764993,-0.005858714712098201,-0.00031094455305417934,-0.017184633181422944
3.43,0.05580239007751089,0.25200559174597387,1.1842150024973812,0.00014975572849445454,-0.002623211869114828,0.010911623048391583
3.44,0.04236900012923806,0.22602554686631193,-0.12655300450587836,0.007927988109997161,-0.008511100202310449,0.0073653084163593265
3.45,0.03799475678104093,0.2153139710548045,-0.11669391429022018,0.02123428171455769,-0.009764227213494653,-0.0018625275735486902
3.46,0.04955624206304913,0.21558563652221466,-0.09211584658897333,0.008655035805896865,-0.00992344366220376,0.01896082945566529
3.47,0.05171811180452677,0.22800006211467577,-0.10341874485201806,0.0051475990839726865,-0.00460933740447908,0.0034084059462042124
3.48,0.027399893462744913,0.23487076400007756,-0.10845480746550329,-0.012864399329854417,-0.0073538933813471685,2.616559275644319e-05
3.49,0.060348293545897845,0.21076276284421616,-0.053844819863921284,0.019741683346986165,-0.01733596311265631,-0.00454832217293712
3.5,0.05189248546788034,0.20811666849516117,-0.08738455754045601,0.010829403692466922,0.01607299195898776,-0.0048980352879300785
3.51,0.04937410618317053,0.2056353861318921,-0.07838569971728676,0.013802788485253494,0.002269261460500109,0.01595818328363024
3.52,0.05553008084358803,0.21888146994771493,0.001302728779944059,0.024992020745239332,0.004588336708691352,-0.015887191769979558
3.53,0.03567705590179636,0.21115142286243505,-0.4747590691253438,0.02810392308328746,-0.011795782522226954,0.007476779388049243
3.54,0.05980694171216925,0.2208982841362165,0.8063315427651914,0.014878688398615052,-0.0008647567918692715,0.013562467376780555
3.55,0.03954162201458222,0.19341434978526656,-0.10377467992177,-0.0024550048966694854,-0.01244849544962017,0.005119348815298103
3.56,0.04443517240889257,0.20948612216525034,-0.10964236316730389,0.007716423330361085,-0.009766834136331167,0.005658284936001769
3.57,0.036696880383939166,0.20784804485337996,-0.09835223467480438,0.013988863863834786,-0.03230823905151329,-0.004849016195847531
3.58,0.05859362831666763,0.20817706242169293,-0.10742907513223739,0.004397002539737196,-0.013783389701283049,-0.00865607853610971
3.59,0.05811929795371454,0.20870521228298222,-0.08444542144621077,0.003166342356308377,-0.008802387126297096,-0.00564207531184485
3.6,0.057967347183146306,0.2112997921129216,-0.058034150032746326,-0.0007252050141846982,-0.013486245827742712,-0.009631922906259648
3.61,0.05516531772791232,0.2072646508961603,-0.06505292353599866,0.0076581832772918725,-0.010608014211639538,-0.022178301745165795
3.62,0.06486733903342108,0.20004036969450356,-0.09125402439618713,0.021673902693361533,-0.012672302788913974,-1.0104137393537882e-05
3.63,0.061110432079761086,0.20265834263601337,-0.07291275709640897,-0.00849144050110272,-0.011633811382531993,-0.009616814350819302
3.64,0.05984933985317156,0.20406605694017657,-0.06960175726712593,0.0013198323620269318,-0.01786538634055815,-0.014317606801348453
3.65,0.07936569399105206,0.1842013367745509,-0.06585764171108388,0.0028193926668639443,-0.0031595485007411004,0.0031307120131122213
3.66,0.05725692528268708,0.2045682390153186,-0.048979363204437625,-0.01133725969895609,-0.020637971787839757,-0.007614438819043126
3.67,0.06268864362642869,0.18852429405189927,-0.08243408087496956,-0.0030159388581331185,-0.005220358581563038,0.011098350029169562
3.68,0.058496172074834665,0.21607121358190645,-0.05919399560080817,0.005065857844012115,-0.012820117935663728,-0.002198359757052934
3.69,0.06037439818850808,0.2095654220381533,-0.07046849271974644,0.008318019173802184,-0.01798460345656954,0.008267117145309326
3.7,0.06379698312497478,0.19855714045908973,-0.050490335742900835,-0.0021251703541758874,-0.011145042936534079,0.007357028747941356
3.71,0.05787449114500137,0.21952405652914256,-0.07710443630681126,0.011901872465100955,-0.03030651130571565,0.003014400341404223
3.72,0.05642806480771291,0.19906337770452354,-0.0961924324013169,4.746401348151288e-05,-0.024818092161188875,0.010608123752455218
3.73,0.0795485278097722,0.2014934203029369,-0.0589886536108609,-0.0011709429346698202,0.0009406366779871698,0.013735231939751461
3.74,0.06739055121576357,0.19485894158973685,-0.07000354817539714,0.016617020072534808,-0.023640684148370894,-0.006864167809940022
3.75,0.08982821410926421,0.19795012739047296,-0.0418461577465916,0.008453048894551372,-0.01632395565523799,0.009371523662065884
3.76,0.05983706394178874,0.2023311768959355,-0.48720714063093484,-0.004789996189981634,-0.010834714072100536,0.007741327843075246
3.77,0.0884803825740403,0.19162408114490784,-0.03432404677446406,-0.005117138324016083,-0.03468537197002823,0.010985553150534871
3.78,0.08433689775232212,0.20240084553820226,-0.06753072037107465,0.011910902207342023,-0.01382684444923513,0.013827362534453273
3.79,0.09351060365325709,0.18046581510384146,-0.035376557500031706,-0.015795483638749986,-0.02530988214383823,-0.008737727693820294
3.8,0.07274649635179839,0.2106048760322302,-0.02499125027387984,-0.0022109591720422747,-0.015558456973683946,-0.0038449219157181457
3.81,0.0976055072563657,0.22692303273843864,0.8978946451653825,-0.008619453377774913,-0.02634367936583524,-0.005271920898423717
3.82,0.08329260636727084,0.19014622095913902,-0.12621392007456164,-0.003565767802158554,0.008774146339134507,-0.003998445124035009
3.83,0.09616383639176747,0.1972817184975021,-0.08572967302760871,-0.0019335703222149976,-0.01618268189329404,-0.001540165064840786
3.84,0.0965017606448551,0.21029352827428527,-0.08651610723318982,-0.015620587790885881,-0.0012485584150155014,0.010326572848579988
3.85,0.1022935703320493,0.19281249022406827,-0.0715024647984674,0.0039375176644629445,-0.01506666163755251,-0.004387359132559599
3.86,0.11083188748121045,0.2078337456729718,0.16731857328646987,-0.004948031453605363,0.003692726264783454,0.0063865905433874905
3.87,0.0852121494255145,0.18398620738499397,-0.08313840559183415,-0.00818307667522171,-0.009913141127116097,0.008866820756147309
3.88,0.07826189355051665,0.17520943388004723,-0.09070154468327078,-0.014823787448989118,-0.00012547874896607584,0.010851206174537104
3.89,0.09290394121576885,0.20302033361511027,-0.07254340551299994,0.0065511067206308745,0.002093819121985911,0.004563746443111463
3.9,0.08656710896218275,0.20677442709769134,-0.036745918763994675,0.017037059119386893,-0.003649402777132709,-0.023808214163762036
3.91,0.09473702429149658,0.19115205942913305,-0.04916230642238177,-0.013738410403464213,-0.004888193315278941,-0.00871499718495667
3.92,0.10979459498363044,0.18805312761141477,0.13563644273538555,0.006703732654472757,-0.015583073900313826,0.013776608113113514
3.93,0.09286183396433692,0.20740207604144686,-0.10200380773415152,0.003872298214795015,0.010435404187413098,-0.002740426499175729
3.94,0.10787977808946865,0.21846865774239702,0.1990805136620242,-0.006434556856562164,-0.000322115318012196,0.017524103556978456
3.95,0.10755647704986415,0.19633104979890728,-0.08822960131615036,0.012596963340507666,0.001028766398226706,-0.008240415585848523
3.96,0.076458145943041,0.20192527181042183,-0.06414443658721322,-0.016026633100854226,-0.004942393446653877,0.010189040989752315
3.97,0.10973757071501461,0.20614212568645437,-0.00668902333361001,-0.0052995536940323475,-0.009862298785294866,-0.01499872034234461
3.98,0.10331475456479015,0.21142093009856058,-0.07901347217746567,-0.010500811505238978,-0.0018576380140248416,-0.004542244747128027
3.99,0.08416979026731253,0.20842293662427647,-0.06639556796518614,0.016563339716462684,0.002059250805127097,-0.007115889116024391
4.0,0.09862500560802988,0.2135085093833392,-0.07890661136088073,0.003846938512885456,0.005189483520556018,-0.010927380523882325
4.01,0.10106926935439639,0.20880083590984913,-0.07695322545245915,-0.008132561234712423,-0.007770653201954614,0.009921708363099458
4.02,0.09560750881871173,0.20137114049840796,-0.07091387690720263,0.0005365240613317281,0.00283149616252513,0.006416700761124029
4.03,0.08464136791199414,0.19328096732692426,-0.0595459560298093,-0.012386888881525327,-0.0013272072146520287,-0.002695598218635696
4.04,0.09581924336468019,0.23097706832614023,-0.05365654467740066,-0.009289588446216723,-0.011596221760852676,-0.01288058492852766
4.05,0.10320592593545702,0.18529927012116026,-0.05631119242165266,0.006249089438870646,-0.014230532144577937,0.008708267112319978
4.06,0.08495994999413206,0.21104456878917913,0.19499977205398092,-0.004831569506259705,-0.0008575783616365127,0.005398762841585424
4.07,0.09139210897039153,0.20893743729632078,-0.020028501915518082,0.005385124588114975,-0.008281585936069976,-0.0036847162626183943
4.08,0.09631275761868817,0.19114785881320956,-0.062130760653994914,0.01217154365406594,0.005498393276136111,-0.0005467537483687982
4.09,0.0933567696829011,0.21614644544310296,-0.07265803177578094,0.005957979329125744,-0.007144831551059387,0.010289765640576234
4.1,0.10705385867405691,0.20947364775094376,-0.056890513378254626,0.006295471059102444,-0.015654493921327155,-0.011870459412717575
4.11,0.11221778221256046,0.19806392676243093,-0.07576628376264799,0.004357867166024693,-0.018610121165552385,-0.0060112857817606665
4.12,0.10135499319788696,0.17254366125163703,-0.06568186211190692,0.0012512475417460443,-0.0008022604469085613,-0.007717208176048458
4.13,0.10625826170603839,0.18707511943075666,-0.06046605840361282,0.02840686780199537,-0.01426835890293298,-0.03137556351603662
4.14,0.10864828306389636,0.20694121235226628,-0.06105746118677008,0.021833122847129863,-0.0166095843356016,-0.007597914558496151
4.15,0.09429903262173925,0.18631799924697567,-0.7619644309784882,0.007268564217645394,-0.0011835258475242105,-0.015290399557869762
4.16,0.11145125974431641,0.19585183567396136,-0.021676902134279197,-0.0003350303726880749,-0.02821390354697681,-0.0030234043537701164
4.17,0.09794586814087101,0.1975191673556159,-0.038552176210585876,0.010598002918625421,-0.0025561737434056583,-0.010340597661120143
4.18,0.10273737121599501,0.1979778601039794,-0.04845620753087369,0.006697751116374188,-0.007051620419559827,-0.011039554245080577
4.19,0.09998921710385461,0.21577801688149228,-0.017553779217929437,-0.010406826760256213,0.0034332598868783088,0.01162728695780669
4.2,0.12647993717494543,0.18851614662195307,-0.005490427180081622,-0.004425296341808396,-0.0002906443659597526,-0.013787619726796378
4.21,0.12389893697824658,0.2077174237007909,0.6218044722578551,-0.01812523597579221,-0.007969877505322465,-0.006643733698684276
4.22,0.11348063144322867,0.18745544437598147,-0.06367208053718375,0.0017486538653684407,0.013770679697270456,-0.008295879300157035
4.23,0.1244903542234235,0.20344112462127206,-0.08405728554447309,-0.0023136106479431677,-0.0066480396607710044,0.012954386695417167
4.24,0.12926623985676094,0.20443002986382647,-0.06142399826076726,0.020558962935495907,0.013072404921635014,-0.01705558064316412
4.25,0.10119481496629004,0.1928033078000352,-0.027972960061309424,0.007438851589184828,-0.005364640368028173,-0.0009866620021141371
4.26,0.1358851322848114,0.21539079701381433,1.077094272106015,0.01603402226217698,-0.008316202899388215,-0.0019406614391326244
4.27,0.09879978549559779,0.2048125604771007,-0.13378605417604805,0.0013192208082761997,0.0008056797649291523,-0.0002176927993149118
4.28,0.09944851227003328,0.1893303825692937,-0.09759957744409188,0.008046801884540523,-0.0025169561482211575,-0.0008198211876316596
4.29,0.136881593949539,0.19637839409943297,-0.09711015628385966,0.0030374299589112,-0.011536436428083916,-0.003980186183441731
4.3,0.11294422346341985,0.2018902624116605,-0.08611290756113393,0.012388518385581974,0.00975299198769758,0.006547356168503847
4.31,0.10698748208753,0.2113883524810803,-0.08212871431867631,0.003693070198923184,-0.003807944090769416,-0.008289792245580265
4.32,0.10537149264997821,0.1852160218051021,-0.6052272326943436,0.00864559793205976,-0.023073062804143663,0.012926513167048362
4.33,0.11263323453624632,0.20579001772604624,-0.04911421787457508,-0.004657192756346806,-0.014377212834348518,0.010463878061224181
4.34,0.12129342250610915,0.20881853100567874,0.2462759469669401,0.0061322372145006,-0.0026198684100237155,-0.0037829157525760826
4.35,0.12443926048324298,0.17121495342647752,-0.03992259917472115,-0.004801545620670952,0.014698646355506956,0.0071873835212015215
4.36,0.11856534601921076,0.18621639379719515,-0.049407962569076404,0.00410957509866648,-0.0025318063325333678,-0.006035021517189651
4.37,0.12400846465675991,0.19485396113372597,-0.08914209523205363,-0.009726129312244609,-0.01192742260396401,0.005509809199441012
4.38,0.10801080301865315,0.18772417941023276,-0.07225061735897809,0.0068985771073095704,0.004873188893100717,0.013543139061680871
4.39,0.12178414967836788,0.19600150608954822,-0.05061359846730616,-0.008121572652951724,0.004817612011625607,-0.007157812403319039
4.4,0.12660560246493466,0.17651244786127646,-0.03865523347687649,-0.00417419920179515,-0.006501085496080705,-0.0038587089100655565
4.41,0.11126203819589316,0.1901708747387462,-0.053152896576131065,-0.01245160323071098,-0.018878458667295626,0.009465839771689744
4.42,0.13106372853193554,0.19106415518236958,-0.07755893224291242,0.010982381734856628,-0.004093037301020012,0.004030906824155618
4.43,0.1153780892024179,0.19688659926188068,-0.22677071016901443,-0.024426148379569246,-0.01055933557961711,0.006893326403735611
4.44,0.1372751221901764,0.19221185941696378,-0.04498704189101426,-0.003901397526747595,0.007055027250897353,0.009698963882118643
4.45,0.10598717276236735,0.1721571406396405,-0.05335801110143438,-0.0020142013129241867,0.0019885587448460022,-0.001155469617318371
4.46,0.11719564214946886,0.1889375071461885,-0.03991290554233699,0.006497764578676875,-0.015833298694780458,-0.019007897620012742
4.47,0.1202641434382622,0.21175723884016814,-0.05871590595780457,0.003891754957673881,0.00508974709950118,0.0070394960002193915
4.48,0.12275322472412367,0.18917903850651493,-0.5854980056505663,-0.007154096740934203,0.005700775880779989,0.00936519823516806
4.49,0.13892253308649027,0.18935119657954505,-0.011062904594663438,0.0015871777799527725,0.002616731214506153,-0.011378041754635613
4.5,0.1295487524862142,0.1878973245328733,-0.02885421419636465,-0.007755933849254978,0.0019194464961701753,0.0021663918419541892
4.51,0.13426689015809207,0.20058308065943536,-0.02361691156712368,0.007127349419444292,-0.0041652116873174706,-0.004575453658026965
4.52,0.12898518280459897,0.19484542080249675,-0.023964464631387905,-0.013132579836558056,-0.004881310526191213,0.006504843541907817
4.53,0.10734166402400144,0.17754189134051504,-0.02581703453913039,0.02100019583341493,-0.010490357373443851,-0.006372919554034462
4.54,0.11985567861437836,0.2043713582344752,-0.013934050383789273,0.009552253170933719,-0.002217418942199626,0.008325296560566752
4.55,0.12333409177894995,0.20869649480129163,-0.02898279209415563,0.0013839392336341943,-0.0008185359189208813,0.006856482955111079
4.56,0.12304724191949577,0.191986905080977,-0.009547598535703805,0.016923866041901672,-0.0019561032563632213,0.0018892096301209283
4.57,0.13742031556291934,0.1959430837832377,-0.039787047429241454,-0.0008861483415954183,0.012471388116831794,-0.013835961965321214
4.58,0.13893428993912132,0.1915113247219015,-0.03679562547425939,0.01106701475853316,0.010363786060930111,-0.011468309149501449
4.59,0.0933708968623034,0.17153853520838283,-0.40053490075682596,0.0008801879501195275,0.0005841011559457319,0.005838179762125206
4.6,0.11740552353285952,0.18247600117216736,0.0019003107683391775,0.006870422748538042,0.007946039880067632,-0.015769212439722673
4.61,0.115524969628724,0.19839185692143313,0.011885172852691465,-0.014026357979040546,0.002961842482757735,-0.009413008435180378
4.62,0.1386200610850612,0.20188731954630543,0.2569935931184668,-0.0031071488221936228,0.004675975437037652,-0.016531623149557726
4.63,0.11959948719304753,0.1744779737179693,-0.030389565089100772,0.001506076168065011,0.004165123530972557,-0.018357893498487765
4.64,0.12626822772405544,0.187291211089612,-0.029237741725721068,0.016158055819810516,0.000525590741493571,-0.0026578942463089733
4.65,0.1272792981803012,0.1904955707965509,-0.009383460841001178,-0.014778435776069394,-0.017980617820011723,-0.002873352971157186
4.66,0.1102660601831352,0.18831264254311939,-0.022613022633811902,0.005727359759659979,0.0065543777357186025,-0.003591363359205008
4.67,0.1030754750672555,0.20418827199623857,-0.02096622037303949,-0.00798797774365248,-0.007032964736628716,-0.0036753749520596034
4.68,0.127228815793715,0.20370385035889255,-0.02572689003942526,0.012670678752592413,-0.015368283615928109,-0.0076830148292578865
4.69,0.1168023254226069,0.1938657189522465,-0.02292563088577338,-0.013473712387385267,0.0026425829699691216,-0.012321935021367268
4.7,0.12039119087962388,0.19556536579681183,-0.0034944903042136728,0.0039610918539239376,0.015879180886056492,-0.01972562229392668
4.71,0.11043914873630553,0.19074914387618266,0.012756256072048437,0.007914547575818259,0.005117891790717114,-0.0011269558488203818
4.72,0.1247231304991237,0.20049186710388828,0.6857755281465164,0.02276032338858168,-0.019335947446341983,-0.0099219770920448
4.73,0.10086787514571749,0.17231099822110899,-0.06499572713473548,-0.010866318473059265,-0.015479299982360181,-0.014902088665668493
4.74,0.11857295117619038,0.15936660051212057,-0.46957824410098536,0.023798247927410508,0.002104171668204591,-0.009569340441705826
4.75,0.12886114287690778,0.1995905531442419,0.541440892890212,-0.012205136058015802,-0.012020060404730297,0.003551070816666906
4.76,0.12625911370911208,0.18126093946429303,-0.051008598443878235,-0.011781610628806055,-0.012363247050174803,0.004039364370904432
4.77,0.13316703376148764,0.192354283493931,-0.07261469463884869,0.011388692490058205,0.00404604948683918,-0.01548433348767848
4.78,0.10252949580977272,0.18649877980908366,-0.043320774572051815,0.018162168253382755,-0.017792500327590412,-0.0010901437915627125
4.79,0.12262296252367809,0.19447372357397388,0.2541546575778064,0.014567827739321677,-0.008944870829398504,-0.005935092709738826
4.8,0.1284335551389769,0.16589456874567376,-0.036118041831693155,0.0061835301220995766,-0.01197599270046314,0.013066368952464155
4.81,0.1261995609504558,0.16886213942748352,-0.03601559906129874,-0.007862410207410332,0.00460095780437331,0.001292685052212291
4.82,0.1461084990000669,0.1901508547072033,-0.05660397629915772,0.007918228420906687,0.012080015294134657,0.0023399174670532367
4.83,0.11404897292481445,0.17505198372903458,-0.06666672162698245,-0.009118660149358908,-0.0017408339664432013,0.0011952940400663911
4.84,0.11799952747052325,0.19571401081877488,-0.031069706254124224,0.0213298757046797,-0.008142964155433724,-0.003491085303953076
4.85,0.11576805998898904,0.1827506820253257,-0.05095201262744634,-0.010532360063740096,0.015958895648629054,0.0035069761388345074
4.86,0.12863762348196076,0.18094658892380852,-0.02431983777972418,0.006395677102007252,-0.012899183569820817,-0.0071585256110540535
4.87,0.13280301399655325,0.1733114388859403,-0.061821889509243264,-0.0017637380595406402,0.007335073684222482,-8.231658931024451e-05
4.88,0.11225621523313822,0.19364757218054954,-0.025259045632327462,0.008682322854363373,-0.010856024372502094,-0.00498305409706825
4.89,0.1425313386275895,0.18864085252855506,-0.028561240596089242,0.007593342992450207,0.0026687148318398843,0.003615746260702727
4.9,0.13472312691594043,0.18560665580704117,-0.03597691806263992,0.0115939172402417,0.007127928524377039,0.010504278546664431
4.91,0.12352503306254817,0.17358473772125158,-0.011538765508896,-0.0031698253023413037,-0.03233527648897807,-0.003121171416634655
4.92,0.10254547510750188,0.17471446079495861,-0.5227993197839171,0.008341186408612462,-0.025906708839179213,-0.0012053808662071271
4.93,0.14330579671498367,0.16283181729309198,-0.009529551343171513,-0.009176106754698678,-0.022939832901335572,-0.007706421191269889
4.94,0.11647976848669168,0.19215674855719095,-0.023016717347149437,-0.0060033505698804356,-0.002316298582779609,-0.0021526628893563907
4.95,0.14264509631851913,0.19521344615286013,0.6265667158005019,0.011210441682587339,-0.009360196154558995,0.0014388220990433694
4.96,0.1474346607938145,0.18390644984022544,-0.04072199118538872,-0.014030713160170115,-0.026258235653365183,0.01158205756987606
4.97,0.12621686826614,0.15887240738274785,-0.06502264798359202,-0.0048718725602174195,-0.024330851299343537,0.006786392575489306
4.98,0.11684379054081964,0.1667981576397939,-0.7768202382142184,0.0071976454618413385,-0.008495395740093614,0.010741568529764278
4.99,0.13897355812946627,0.17837928899134506,-0.0008083822578999986,0.0012168241821580207,-0.015070660405110422,-0.004411674031124466
5.0,0.14532102730238217,0.1667147343070834,-0.01870035002930354,0.002566169417137704,0.0034806462246939566,0.014250987818779436
5.01,0.14510955040504386,0.1675033769632937,-0.018534643838685586,0.0010883008479799245,-0.008820682096673797,0.016085577949420615
5.02,0.1461401495101523,0.1790576035659212,-0.23893535737806895,0.019432930113272708,-0.0005921928870580885,-0.017332079378624
5.03,0.12934760917696572,0.17993923296133252,-0.005056011569454699,-0.021024963674242985,-0.010656533740535958,0.003582489120805124
5.04,0.1308485188403031,0.1879024161526572,0.4291721882428344,-0.004461936120103939,-0.005957699195598855,-0.015254525437745534
5.05,0.14287843950412432,0.18531503996406906,-0.01590882334017292,0.003869557363880832,0.0012846495749104406,-0.01913386981684273
5.06,0.1546361629126849,0.1934386812176631,-0.022975191105387316,0.006223064252771549,0.008706381530538678,0.006697301221068168
5.07,0.1370405812299274,0.192003357614772,0.20077090478577367,-0.010470758156621188,-0.012493637614115056,-0.013207564360441236
5.08,0.1495753406033186,0.19407153305887742,-0.03838840328427288,0.01148443708329631,0.0036828845704633796,-0.01560749992825771
5.09,0.17176162739276918,0.19509052352846357,0.29748365989929404,0.014608565498007318,-0.006879568680971968,-0.0005461871269126137
5.1,0.1482670950323942,0.2000374216463563,-0.03915293731435762,-0.014726193517272126,0.010586653839499973,-0.009732423583108992
5.11,0.14324399389895318,0.18558535294377546,-0.02095783262228096,-0.004032498149645176,-0.03184286275067378,0.018432508093416462
5.12,0.13420233172308413,0.170120012458636,-0.3856266485948512,0.004153629816585911,-0.0038341372470387363,-0.004398659624454973
5.13,0.15674831430502367,0.15546668572125394,-0.28101958688689704,0.005795983817733088,-0.008712507784972682,0.009194763814904909
5.14,0.15801605624497644,0.16635804904699428,-0.015584435138714077,-0.0035390780696281854,-0.0018872789007025371,-0.008351347393268588
5.15,0.15859800471700675,0.19230280254993676,-0.013761997942756107,0.017254296445286477,-0.020586468381646104,0.005605835713255366
5.16,0.13592501417344005,0.20142745524907785,0.007706493947561541,-0.0028271802049043295,0.0030504551346716563,0.006484829121289154
5.17,0.15358222716530812,0.20521741213156486,0.2234120149276219,-0.010078877411537467,0.0006487629592043624,-0.0023139177536095684
5.18,0.1412288094884036,0.15669871562119772,-0.031062721264335666,-0.000936121424833577,0.0013915537026541573,-0.005892182105530057
5.19,0.1400345934141357,0.15876254142205573,-0.024369662982366497,-0.0024376281538795253,0.008057376081072263,-0.00440677701956469
5.2,0.15208878325372585,0.19256389168856203,-0.021580462990570936,-0.01669847363658478,0.007490015611931711,-0.013739319673329038
5.21,0.15372563485153531,0.16445852052548843,-0.018729970960046416,0.0019429109969762862,-0.012129875789650397,0.007336441502362112
5.22,0.13212369762581144,0.15733681122067447,-0.552830530830346,0.010538452205502556,0.0009650657047821248,-0.0010254302037063746
5.23,0.13465905799562838,0.17245661763765618,0.009882966471133885,0.002714458680080613,-0.004026018063773833,-0.00013957636276849513
5.24,0.16402978666199816,0.17624421884044034,-0.013443220497507792,0.004557276406280128,-0.01297793442153394,-0.009341106306899551
5.25,0.15271774137900784,0.1766807215068654,0.017206533912438184,0.002750070255696544,-0.004467816955389724,0.011986570669636487
5.26,0.1595774551747813,0.18559928254617003,-0.008134369298533657,0.015428415490423635,-0.010242553922560791,-0.008385362225229481
5.27,0.13635392083730052,0.167298938260936,-0.039493735733529135,-0.006739927045251901,0.003421944910619052,0.009774600902147313
5.28,0.1464720421063673,0.1721345891419319,-0.005832885106176513,0.00451849246179723,-0.0025139452412452513,0.00843925132231137
5.29,0.1532974464357606,0.18739149314225684,0.0035976678267830575,0.004793825725083578,0.014601295296390525,0.0026810307698763905
5.3,0.14933237234126479,0.1545236681591648,0.002006704092501143,0.006977291225023443,0.002429808349548638,-0.0066953290677432605
5.31,0.16114329895480364,0.17964925668039242,-0.0204088419605474,-0.014171739516650362,-0.00827345572637652,0.019576211090859504
5.32,0.15424144368205633,0.17128692862172257,-0.013652838548061286,0.0021231987776335645,-0.003764262963997494,-0.0026382495547064167
5.33,0.14997070925678868,0.16829878073116977,-0.5402974943269282,0.003901441003111349,0.0037901835297378984,0.015467218472639358
5.34,0.16392297521777427,0.1674913547445909,0.022702647621483395,-0.0013727353021740132,-0.003434577662913283,-0.009031687882864717
5.35,0.1371240161436712,0.17222220857542617,0.016516730980403745,0.006863049357235664,-0.007413467469537081,0.008633126693156986
5.36,0.1362316977368167,0.18894108406414853,0.040649671440941594,-0.011202824749211375,0.010509341211472921,0.012903850219792868
5.37,0.1579179584766739,0.1805577451673929,0.008811498760780408,0.009378736128127015,0.0062832582800793225,-0.02005225541046947
5.38,0.1584536669454308,0.1923981006561789,0.44938526161265036,-0.003239103401592263,0.0020071483504800302,-0.0011034268988930206
5.39,0.15257301277875568,0.18548157520098937,-0.01624985570003325,-0.006466143283470439,0.005559926076948251,-0.010872328075458617
5.4,0.16635036430710345,0.17930782142514717,0.008912603303877685,-0.0017261373969010615,0.02403336042649337,0.006970390296452921
5.41,0.1412863506955072,0.17886523030170043,0.007798677942416168,0.011562642032278917,-0.00022192600298071453,-0.007287747904032972
5.42,0.1579251667503972,0.1762361681284478,-0.006777737124252666,0.003239533680724811,0.012127841228836428,0.0026522722024081495
5.43,0.1321735562111619,0.18801755019461344,-0.019761503580567982,0.004871638776164121,-0.0005831186236378361,0.0022325531645073695
5.44,0.1642022329011723,0.19440753412664588,-0.022865171074615807,0.0005376767828175547,0.002475305441765738,-0.005707628450567793
5.45,0.1422362940764994,0.1574172144992496,-0.013260433431302935,0.026112252746607778,-0.009923374619864093,-0.005060786476793596
5.46,0.13733821084183762,0.18389950398748467,0.006226309052742169,0.006148011436089829,-0.010102722347560714,-0.0025759777323957323
5.47,0.13047472696701007,0.17510202767258845,-0.04669339337600309,-0.0006436685162783977,0.0010901750828909967,-0.003827572513779875
5.48,0.15939252909982715,0.1652959608405954,-0.013083266779253144,0.021823713399911127,-0.020062359352433005,-0.0037565598596665407
5.49,0.12959516843883312,0.1733392624427727,-0.006707583592511692,-0.0024390197237119503,0.009364441234935576,0.0009298961160142307
5.5,0.13894902251969307,0.1731765440776639,-0.030210377407165794,0.0018508568105819936,-0.006042259863555184,-0.004265387792564245
5.51,0.16221339553601988,0.17626526376427112,0.007695608299089318,0.008437811184203942,0.013019260683282626,-0.0056012409455599215
5.52,0.15255137142069805,0.16434521067548907,-0.019425319405910448,0.01411015429804524,-0.01318984989196294,0.005580313221704997
5.53,0.15397031746309248,0.1673038730339544,-0.018989224098918088,0.0032444587702702586,0.022975468447419538,0.00033108344640189746
5.54,0.13729978308559815,0.16739939371363124,-0.008731307412112754,0.011215808332715176,0.030935251742008188,-0.008197856833347604
5.55,0.14750659478386588,0.15416619800663495,-0.0075826544240204866,0.013891473580697804,0.03714240596114628,0.004671459405674734
5.56,0.15100859481232942,0.17762472365411713,0.0018302437675231412,0.005593977211706272,0.026591179397307107,-0.015198954570345483
5.57,0.13473102239614318,0.17108072645092604,-0.17316453717540475,0.0059254860252762175,0.011534388171087503,-0.0019215944101272026
5.58,0.1305307452764636,0.15379565337271536,-0.020240773934042573,-0.0019242583810256293,0.024869852079813282,0.005784473121869106
5.59,0.13912069238869443,0.17560506026550918,0.002203418147795837,-0.005177671146215432,0.014023934564329908,0.0012476149121833269
5.6,0.12397506420393505,0.1736606687181107,0.25447322773983005,0.014416932780720336,0.013216374830425844,0.001114082105016889
5.61,0.1440011105301155,0.16396069868828544,-0.0036753598732032306,0.0034263047127889874,0.0036743889591073554,0.003447735115833015
5.62,0.13215861234261592,0.1613652639229682,-0.033639121615901185,0.00258529323972453,0.009796948317557052,-0.012864388116147391
5.63,0.13862256124270927,0.16192419271898945,-0.0163141546435181,0.01645367450638232,-9.591089118842974e-05,-0.004245204893972355
5.64,0.14855580731576104,0.15946932133758832,-0.008038051647924784,0.011574478632297349,0.004772249190854827,0.007655646855496186
5.65,0.13197854113954333,0.1375471374910362,-0.005141864683759324,0.010309790996018673,0.0012308591409692603,-0.0028218652680837395
5.66,0.12882001899920176,0.15755943379807252,-0.004936993474129268,-0.022920709757482075,0.02131099890449309,0.013873698086864908
5.67,0.13558325708261784,0.17868191276260892,-0.0441332546745509,-0.01710104663242656,0.016221171359616454,0.007716078950131014
5.68,0.14296632113371033,0.18506030369035986,1.027856032857224,-0.005893935433251851,0.0012908839061941911,0.0031868808660589784
5.69,0.12408694181024726,0.1826711992989002,0.34360648763383705,0.02431791097252404,0.006089865335908809,0.0026657801817563803
5.7,0.14039883063869818,0.1654731259231981,-0.07410932628107059,0.012481537309141675,0.00032522570435929426,-0.00848153043218251
5.71,0.12815415947445938,0.16828667357777033,-0.06157794888440095,-0.014239155156322295,-0.01826400118635639,0.0241700206189209
5.72,0.1137666054949307,0.1678986760597313,-0.0894685627369502,0.003075123442680326,0.00288449403081926,0.0019852134303302666
5.73,0.10409341382678838,0.1442992708675367,-1.1288074822595757,0.00648853183032651,-0.0030604703447948303,-0.00028128412793337453
5.74,0.12006030571410542,0.15453320242769805,-0.017271051755015202,0.017595918209464705,-0.014608434829623025,-0.013573263937751339
5.75,0.14628052782500697,0.17462042124523053,-0.005701939952650897,0.019550678962024795,0.004178013906922971,-0.001661998733883287
5.76,0.12717230623298886,0.16060741014070584,-0.2950752025997855,-0.002865140512763123,-0.0044953285991734745,-0.011315629197853627
5.77,0.12613402042808705,0.1655210460297711,0.162114539091519,0.0019179843084515136,-0.007345385134575689,0.006161749805091597
5.78,0.12535729418985697,0.16266984083774838,-0.01620807872935465,0.012485406913637788,0.0019802885461645495,-0.0021016296883567473
5.79,0.12242178997495085,0.13840064254240028,-0.0011433069722602864,0.02450728241078045,-0.008680100525005775,0.003526139914219707
5.8,0.12031465654946936,0.1817202457038654,-0.013889235196950726,0.006303124315085957,-0.010755347152776318,-0.01331056668985751
5.81,0.1276291414483661,0.1510919610859804,0.008564932417914815,0.01634622149777552,-0.018578583960165596,-0.001854397087861533
5.82,0.13072140034595436,0.15823866375401707,-0.06134823328198884,0.01703055759131686,0.00629143447106713,-0.005738509945150772
5.83,0.14803384617196833,0.13734524300283343,-0.030873249702609896,-0.0008609258096142769,-0.015114577667493587,0.005574308923309438
5.84,0.13130245159519108,0.14475644340006463,-0.018109322742286306,0.013536329813714582,-0.01612829284839091,3.895160072300971e-05
5.85,0.14969036187474138,0.1431526947376935,-0.019866560745554363,0.03191472943321309,-0.022848790424803415,0.0053812055759235155
5.86,0.1289303317937409,0.1702081095424054,-0.01776760720191965,0.02095518734077119,-0.005756874053957493,-0.0037410870172174286
5.87,0.13956351518753432,0.12825762800870755,-0.031105022766164822,0.015269919855223678,-0.01900689526848888,0.00667770396118854
5.88,0.12924989791749597,0.14322672486492266,-0.03280794258733367,0.016399610080268738,-0.004409488649323682,-0.007204374413034966
5.89,0.14376358555664037,0.1355610239810725,-0.005878913490860347,0.007588871405846004,-0.009994742808171935,0.01851359922739651
5.9,0.15438719069745918,0.1402462056867532,-0.004928551259355926,0.014794448818583742,-0.010395376915352368,0.004506745687657795
5.91,0.1514064163032122,0.13490659773850425,-0.008973046403207906,0.017865830474132767,-0.009573727581114518,0.00945451558970016
5.92,0.15304544788588864,0.14286166976649314,-0.02965782127106404,-0.0003479206773088269,-0.020477743067665997,-0.01691075705295938
5.93,0.15172635096597284,0.1355795979934321,-0.00928268482482532,5.672583521602187e-05,-0.02706636877453523,-0.007766607909203105
5.94,0.14849442128690726,0.13155860759874233,0.33871003134605393,-0.0023742121649747445,-0.015854544724018232,0.02162604491842389
5.95,0.17057242949702767,0.13083181594761037,0.2419438080948543,0.0028056748699857113,-0.004586784681751565,-0.021264659317124058
5.96,0.15762049889618102,0.12188487172978162,-0.22322267419371647,0.0027702034187025533,-0.0023508251219169704,-0.0014193889680873158
5.97,0.16017691068262915,0.13912805266955455,0.10448445752809264,0.008139197798034214,-0.019557924940175168,-0.004213331861478661
5.98,0.1552987150498413,0.1607372643042276,-0.03917905715075819,-0.001201586702611497,-0.0007958840125887722,0.001534211911837638
5.99,0.16592354034347143,0.13503640289389907,-0.042534862026037915,-0.0052335024841179845,-0.022478381124668982,-0.00875013467205737
6.0,0.14904360519615054,0.13560688157124198,-0.03955482106568421,0.012366095292665209,-0.01862448239714915,-0.00896315108025013
6.01,0.15050856160716045,0.1367881499737499,0.5095346095536245,0.012364388596465253,-0.011285295633754609,0.007089731650068832
6.02,0.13373670981751043,0.1495274432574314,-0.09739247454243087,-0.005679252962273387,-0.01942520065043598,0.0007321924970983473
6.03,0.1420238152025674,0.11901821329106041,-0.07039921874632835,0.0180939576352728,-0.01613393151280267,-0.0037652173463632675
6.04,0.1628987880308853,0.12927447559833324,-0.056088934033065155,0.004778993850747561,0.001484285009434332,-0.015267520416547359
6.05,0.16172888727958865,0.13295144677665793,-0.02273177917814413,0.009471942163230818,-0.026838768498739472,-0.0018597865718369194
6.06,0.15191545299609657,0.1408598899309288,-0.03851996552860168,-0.012428488090920906,-0.01733633827181421,-0.003605536508264422
6.07,0.16085639547210243,0.13760529153251905,-0.07266067932944152,0.00468469036702663,-0.010607260803024446,-0.022853982600588588
6.08,0.168077130890306,0.12421646528891009,-0.05745349496939499,0.025489646726795778,-0.0073371560225879125,-0.021948642045040708
6.09,0.17235632963705957,0.11201878408578281,-0.024825826197867495,0.02264027831369047,-0.0074267385441848036,-0.006311880015617978
6.1,0.17744690394722176,0.1336598082093561,0.12375032327472628,0.007243221996278828,0.0061804044099604254,-0.0050250497085391
6.11,0.1735061786341743,0.12470237998274669,-0.05129846120234994,0.006339465654219986,-0.008883240387806024,-0.006956135353750753
6.12,0.15666833093978652,0.13008813225255902,-0.05632956922756257,-0.0008480534568658217,-0.004184014907817402,-0.004737635820184924
6.13,0.18158439682428767,0.15224679760562443,-0.06098416595427092,0.009540285596139687,-0.0091425747731828,-0.011616533782455193
6.14,0.17855833034585392,0.12441714523548783,-0.04986849725025815,0.01791214389009344,-0.0016997689667047292,0.0067122458670301685
6.15,0.15950187752139244,0.14060094656020547,-0.03196976209190291,0.01917522043709206,-0.014668329227116429,-0.017600579507560016
6.16,0.16380273017814478,0.1349856164470324,-0.028718585093024752,0.010853768251687849,-0.004238352421137071,-0.009374016231335013
6.17,0.17018958842671014,0.10834964550083272,-0.3308518849578893,0.004728246108209076,0.0024634204337786215,0.0049895259516140695
6.18,0.16316199384290753,0.13127363065998504,-0.03411997732186334,0.013450535415646352,-0.022005928503097055,-0.015145531019018773
6.19,0.17477413458643434,0.11796894013408576,-0.03784197065907319,-0.0038003150948700375,-0.018402868206857326,0.0001317454185792108
6.2,0.16596838559604823,0.11149936879797058,-0.2044184788947394,0.001767135943727861,0.0034371502488033745,0.004424241271814439
6.21,0.163443422313942,0.12512765080245067,-0.07377067697279444,-0.0016704734357783808,-0.008577685965102604,-0.003930486198620629
6.22,0.1711969224502351,0.14218117141305836,-0.035982131510608126,0.005445476828782728,-0.009654546086508446,-0.005164974473347821
6.23,0.19036096706950006,0.10695545823671604,-0.03217654898609823,-0.0068190273158262385,-0.007788683921161146,0.003715834995630147
6.24,0.16640836875069448,0.10138295772052022,-0.02241398526026898,-0.006723033532840549,-0.01599640348162589,0.003276542434579572
6.25,0.1653105333879018,0.12925957406668157,0.003555899275343666,0.024346056830431367,0.00819918277174637,-0.015525992118890768
6.26,0.17838700474209296,0.1249591648611756,-0.0014766539049402248,0.021485543102594505,-0.01167216165426317,0.001705161599893864
6.27,0.20623926206887105,0.13499497773264282,1.2068052859015006,-0.014095682980440612,0.004010621031740551,0.012662611797557581
6.28,0.18905020057855018,0.11729136065151295,-0.08930094572429734,0.004992766128515697,-0.0005910993351765014,-0.019960449650127783
6.29,0.19102569653146054,0.10821122193440835,0.5065560363026098,0.0037192356311097708,0.0241328401044506,-0.0003697689570838188
6.3,0.18320023788301293,0.12755420395598224,-0.0844583989080065,0.0045642332939830246,-0.005596833665668988,0.020280370777169807
6.31,0.16918189544337228,0.09982628693840606,-0.07862454092222705,-0.01705402670297607,-0.004573145241203105,-0.007687965459490487
6.32,0.1977994683577485,0.11961145584266142,-0.1117293161533597,-0.011185158550670716,-0.00818170042166282,0.003696217508628554
6.33,0.17168722002777714,0.1173530438638581,-0.0811413966233538,0.0010423636637005673,0.007116657978597206,-0.011897030609800772
6.34,0.16822794095435817,0.1145985173377528,-0.07074812871409038,-0.0065662379680087694,-0.014705780638930011,0.0030819308828215603
6.35,0.17768395878383034,0.11851676011429339,-0.06836096197292342,0.004572550770039926,0.0015395280924653714,-0.017524578537084657
6.36,0.18608644140422856,0.11294580131404332,-0.07053266250431747,0.011662246621049761,-0.024990170137338057,-0.013687539730538299
6.37,0.18856591203579454,0.11150865735412951,0.46673863493922113,0.003179192826528977,-0.014803882753083926,-0.01128931871152709
6.38,0.16052855142842326,0.09666311598802342,-0.9328332943355367,-0.00967348071529517,-0.027116044717824386,-0.003035543844502463
6.39,0.18813987889017186,0.12255654025919516,-0.04762079455147028,0.015324330042321744,-0.009946973072351912,-0.016100948169705503
6.4,0.17709102084763723,0.14627448840169538,-0.029617631933672124,0.004779421255982552,-0.013689639472893752,0.0018663418492252568
6.41,0.17032463804592907,0.12171809738659511,-0.04198780283054766,-0.012349701465034842,-0.0035708708466856837,0.021527526491357637
6.42,0.1773692480467517,0.12274616743965307,-0.06540714060502091,0.015325777827583962,-0.022649275030783747,0.0012723014999839544
6.43,0.20407737848862878,0.11351058759203399,0.32518279221024976,-0.0028743374366999117,-0.023956679737350134,0.0027853486654502296
6.44,0.208843100500966,0.12117337009579003,-0.06658266047809817,0.01126734394301539,-0.006376174502403185,-0.005370254252820959
6.45,0.19329740766185619,0.11535712526879563,-0.05160458214956877,0.02530023713574173,-0.009855915548222825,0.010083284109575062
6.46,0.17991145427511865,0.11145920445578257,-0.0363563992051351,-0.009603429464184906,-0.014807045264389774,-0.00196094395194355
6.47,0.20956272643633125,0.1342074528266208,-0.07796109637639582,0.0046203871412500664,-0.0062083999832395955,0.015528423873902757
6.48,0.1835366632974349,0.09838335432344765,-0.0596405667342215,0.022397827933275053,-0.0021475609287315775,-0.007508004459725836
6.49,0.20093519561782938,0.11241234178025034,-0.04883959351319892,0.013060543848767954,-0.005340196923384608,0.008004411089957036
6.5,0.1846942342103096,0.1284482779223757,-0.04284178750404522,0.0003641480747938932,-0.007732037473648265,0.009493028020351589
6.51,0.20450985345149147,0.11608636362863277,-0.05114040615908638,0.01590517060028468,-0.003841117797458016,-0.00026122469378129804
6.52,0.19413615179671714,0.08897996503406327,-0.07445574793972723,-0.007326808767471646,-0.014065692931250436,0.00981276334737955
6.53,0.2000818715186123,0.10064626936000157,-0.06632721835024645,0.0011127277794187023,0.012376894841978988,-0.019085236117698454
6.54,0.1787214230019224,0.11157188012015447,-0.04937833613738821,0.01087752313335523,0.011396502072673842,0.0063747559032790845
6.55,0.1939330515281799,0.09448527078676879,-0.41416645106415023,0.0020128603881379515,0.013179573582588935,0.009974256742569576
6.56,0.19495223198444064,0.11760900676360383,-0.029200669392043188,0.01987358695703826,0.012232562962314297,0.002290556941975673
6.57,0.20798628075145278,0.09648250468669674,-0.0636777404534982,0.02056228223641797,-0.0005096367723459484,0.008756576862240375
6.58,0.20115046445027834,0.10278615721212601,-0.04992260051014325,0.011538240527079184,0.015689854511405924,0.001908550310108132
6.59,0.1888811512939924,0.109788341707154,-0.024468453901761514,-0.0045375870516501954,-0.012969451812994252,0.0041815148203306896
6.6,0.20050846787944607,0.10367450870473849,-0.020194943275572547,0.01083740056145845,0.01742813937973936,-0.012517045634840731
6.61,0.19623893952182078,0.10179562228227576,-0.0526414954652912,0.0003484557673940243,0.0003247981243456981,0.012886416798049445
6.62,0.23805722483236555,0.11583667764719743,0.9529207539907852,0.004077955399339169,-0.004840129693429741,0.008279704321569777
6.63,0.1866001045279357,0.08774500203897599,-0.11126917507355556,-0.009647284878356213,-0.006123107394090121,-0.006443766849900426
6.64,0.1804445319518851,0.10728561678133802,-0.07765126024770981,-0.005544714987477151,0.021088866897871764,0.010494952533050298
6.65,0.19659415317511791,0.10457896539813187,0.22186625899767945,0.01674799822935955,0.018102516397811866,0.014479375567389522
6.66,0.20755710863583615,0.09002228323362794,0.24752305803263008,-0.009708581088747816,-0.002698171809415943,-0.0019011120138650974
6.67,0.17229861997795773,0.11167142378947603,-0.9169438654426416,-0.000323027082931031,0.010749057967519751,-0.0005604758746500646
6.68,0.17708974588781143,0.11988915743868357,-0.04166206863652591,-0.005204866189039217,0.002537393479078759,-0.0016851013419743053
6.69,0.18921309569788392,0.10682235948609359,-0.052528593061324534,-0.000489252885112485,0.005125569933298564,0.008215807565067571
6.7,0.18220904337584143,0.10254107269826646,-0.04297327912526262,0.015819430682648218,-0.006789215228937883,0.013386064216798384
6.71,0.19092969123382586,0.08814149339211133,-0.04018306364124097,-0.013454181742503558,-0.013257255052154429,-0.006746682337673608
6.72,0.18813336497317415,0.11220781984439283,-0.09374970625085968,0.005909875851189288,-0.0029574306988602033,0.03658066654465071
6.73,0.2108165898961762,0.09488595169549471,0.29830838168798945,0.0028391634827745634,0.014359673896735254,0.0151032481236823
6.74,0.1894385043379289,0.10825382185638666,-0.06545943331649226,0.0252514567309466,-0.002750321152036749,-0.0029897726764068263
6.75,0.1940537882244761,0.09499060130919289,-0.059838456473367566,-0.000473276431469093,-0.007565978621890094,0.007322533310429652
6.76,0.1873306421797526,0.08947035767387636,-0.16494901178041638,-0.00969331297273886,0.006888390599522407,0.011960669246535258
6.77,0.185941345101539,0.10971084772032458,-0.06756834814421502,0.010664463379320907,0.01423956704808332,-0.001521132071259217
6.78,0.18353766926855677,0.09946033124390721,-0.06814637734796813,0.01062763714066493,0.01170649444070112,0.00946186827320347
6.79,0.19067669368942922,0.10144937982536635,0.024136834481644245,-0.0020876688676524143,-7.223145984650947e-05,0.0024190511318686585
6.8,0.1995047064936457,0.09647567048860511,-0.038923326661937735,0.014338947115825123,0.0021834614135682086,0.017399618041944773
6.81,0.20469139536116437,0.09551500997842612,-0.03997406567076522,-0.0013875052479258364,-0.01595591324134102,-0.0037648162356601154
6.82,0.18356156011144512,0.09536116513919826,-0.3953823203884561,-0.014960376807125957,-0.02194006002347292,-0.009725472862738395
6.83,0.21393872721652696,0.10325671681504821,-0.03944437039771,0.0031449856873781165,-0.021532948918681277,-0.002098176631562275
6.84,0.21261746541871923,0.10731515706172295,1.059333323385482,-0.0010001383640480524,-0.00756753869805837,0.006772795256871513
6.85,0.18284059065344438,0.10027985475441364,-0.07574197893527197,0.005186537309967475,0.0008635785362631409,-0.004356218227136957
6.86,0.19204337603628666,0.09377611555025638,-0.08043061532412042,-0.014721455658085655,-0.030245357268339258,-0.009574760262259846
6.87,0.19997581230907532,0.09169463495811321,-0.1022093004683697,0.009438659410103863,-0.010697730533065762,-0.0002039436038222185
6.88,0.21463473759348234,0.09007640467055239,0.633845594499417,0.0007419619568876195,-0.004589746063503443,0.010856391667939756
6.89,0.18341232860326126,0.10316869050677442,-0.12097751951872443,-0.0035423049399876663,0.002235098160138683,0.02077095695775829
6.9,0.2022103824329348,0.0881096192018905,-0.09101551547881283,0.013272993774544148,0.006490149486491627,0.008941138951882812
6.91,0.20380181681643433,0.09057899276839775,-0.085249686252319,0.0022005517485718185,-0.0065130368967162705,0.004215402785530016
6.92,0.21547371262347947,0.09530375862747612,-0.422138599231483,0.005967512414166726,-0.015889042296242134,0.018279189038180575
6.93,0.18091849021063722,0.07864961742202878,-0.08656061763825765,0.016025838047766455,-0.0036510115037341456,0.0057137821088607075
6.94,0.19474940243412991,0.11100606835249185,-0.08853837029113569,0.019834672119526976,-0.003907123041086929,0.006000059699662073
6.95,0.1854090118395263,0.1075778084267704,-0.06021962395971479,0.020104806409425476,-0.0171273627368176,0.007289025273479675
6.96,0.20370092264148545,0.09586075790437489,-0.062239807011335066,0.002292414256932998,-0.012057377132683622,0.02920751565325018
6.97,0.20734703513182726,0.09201773058313928,-0.0901919300368576,0.012588868965718316,-0.014997716472990894,0.015384838902407742
6.98,0.21310272120076096,0.08274251879227071,-0.0662234341087331,0.002883679072942727,-0.009703439208479062,-0.011893891319213711
6.99,0.21109704970611892,0.10087195210151113,-0.06347868556851487,0.01439565560518265,0.011430579704692918,-9.384015506957652e-05
7.0,0.1991000985278467,0.08483372851167864,-0.057465134668971095,0.009535733670384653,-0.013102594969004844,-0.01085852257054411
7.01,0.22140299926732396,0.09824899433423792,-0.05534178746372527,0.006732123672628246,-0.008224551865300878,0.0033013704839165367
7.02,0.21051844563812236,0.0894671968337731,-0.09811582994353708,0.005890235659954198,-0.016944789169067415,-0.011829713512426183
7.03,0.19262508663862,0.09726969092109765,-0.06957818227750033,-0.0020206641851252148,-0.01490693577489629,-0.01497697467034391
7.04,0.22135057870917635,0.06969682035699368,-0.043255456195256406,0.0001001430317938562,-0.007281062076027434,0.009814480574055527
7.05,0.1970436185283333,0.08390034235075965,0.3770385335781342,0.011219740682481594,-0.0026700075753721296,0.004021693356526381
7.06,0.20520331760528557,0.08744796894564696,-0.048712439878725367,-0.005843646958496159,-0.022100848504595788,-0.01475729333336312
7.07,0.20732397906667346,0.07420831548143024,-0.08749944519161468,0.004444379410381796,0.007662964146231171,0.0016377092578563257
7.08,0.21385846033835995,0.09118807472528967,0.42313852574501887,0.012108009138730263,-0.0030743275693149224,-0.006484621817205243
7.09,0.20296816762551326,0.09252674021961897,-0.10128790966509127,0.007537664554000611,0.003439143934508504,-0.0033669744392551297
7.1,0.20773808704256624,0.09195383559139741,-0.08425625451017121,-0.004027493764584554,-0.010285488499887096,-0.01774548427000476
7.11,0.2141037150775526,0.07077127770369593,-0.07705062539911102,0.004353007675018929,-0.010677811379495066,-0.0041224582060984645
7.12,0.19574515268447532,0.06332949709235658,-0.09833807819836568,0.004134542209733548,0.0064490157483538275,0.0164592228550144
7.13,0.20829590849904472,0.08141765277005318,-0.0778233624935157,0.0004488740983558542,0.007956637380728519,0.00639842013599253
7.14,0.1967941233805476,0.08273250784820355,-0.07183571470248327,0.013213220003453088,-0.010320366056059307,0.017745070492967387
7.15,0.21347483472051107,0.07747202444595717,-0.08494913157870694,-0.001355467582812445,0.007362590062076946,-0.01042191443091658
7.16,0.22010037973021815,0.08209503206423191,0.47766460521389137,-0.024886200033365124,-0.0002500581149394235,0.0027652085009005445
7.17,0.21301851011216957,0.07293181383545512,-0.12398618164153642,-0.007559230521296496,0.0016276339585458495,0.009875861824690023
7.18,0.22906053371499413,0.062073203073284094,-0.11614716537265664,0.0015635097007174331,0.0027009299545727866,-0.0001782591714715466
7.19,0.18720064412198276,0.08306925390608288,-0.08834069594030454,-0.004523474032383269,-0.006795029211045859,-0.0019575819211379614
7.2,0.21486915691815692,0.08776392979207209,-0.07769582302755398,0.026235370780290937,0.005974302387172247,0.010386915142047818
7.21,0.22138964492742688,0.0764591829737846,-0.07802688957674829,0.004922878072033752,-0.0008384465577370151,0.015212409341264973
7.22,0.2077002880286325,0.08097572764649055,-0.4097526080121948,0.002373569624841167,-0.0070762057130916945,-0.0024635548123156203
7.23,0.2002664981843523,0.06553061604045103,-0.07836701336442965,0.008637862191078309,0.007691349719534657,0.0199139134682757
7.24,0.20300721929727875,0.08675839914604036,-0.0595621535307595,-0.0034726627869825326,0.01168496648929663,0.0006798632792022975
7.25,0.20970006495064245,0.0674463291181668,-0.047569851932515006,0.00141926427895556,0.003808008285000956,0.015604152956935529
7.26,0.21655185841936087,0.07966521072949288,-0.0481977794421026,-0.011038215624911132,-0.0023969995316991733,0.010345562094562511
7.27,0.19878147021753456,0.08988744028067751,-0.08918513735858864,-0.02018209635386948,0.003962219562803845,0.013159098796422908
7.28,0.214234571794975,0.08094840828769302,-0.06339495882534643,-0.0010277136173499758,0.008574599390445706,0.009323578921941862
7.29,0.2037240207156242,0.0845692294623752,-0.05243915804921609,-0.010908247264240716,0.013522423595015804,0.009773158807965974
7.3,0.2038567946638612,0.08503521154889579,-0.05451778929038685,0.0008711300330459361,0.008349610256238472,0.004144113052309687
7.31,0.20436311524907574,0.07224378646256588,-0.029405561544929563,-0.013524272207563949,-0.007529889948673221,0.02496889425358554
7.32,0.20887418969549215,0.07486815231099146,-0.060918984557796964,0.0011683365461407696,0.013202452740887192,0.010356499107364147
7.33,0.2162558161447864,0.08612035729860491,-0.35167349212026733,0.007549881537094123,-0.025422736125917583,0.01050521270924423
7.34,0.20665865280381193,0.08871342808420149,-0.058140932250622744,-0.016533087428241555,-0.013800509095404565,-0.004538917414962291
7.35,0.21031649179237452,0.10121120344508243,-0.015713608886091156,0.02335397794855538,-0.004183026515890345,0.00955521682682087
7.36,0.24486779987947607,0.0744638117770943,0.8543343614114686,-0.00471640344190128,-0.02367495598939412,0.0064065416478125995
7.37,0.2280103634690009,0.10185985598015547,-0.09644924305682674,0.02280434274644118,-0.002187608014943802,-0.012957179353353224
7.38,0.2106486975958596,0.08103062468878124,-0.11392570711696046,-0.003308324797184759,-0.01294308649797244,0.0071101445164655705
7.39,0.21258371513592222,0.09928892565754883,0.002486050612569922,0.013911244847668137,-0.008911968768693582,-0.008606321258508043
7.4,0.21622166390731332,0.06914471108898569,-0.07064496257371086,0.01052291962959404,-0.0009483829941994188,-2.7417426631592967e-05
7.41,0.2056094373702075,0.07345395897572622,-0.061027744557175675,-0.01552972683038668,-0.01021648765979771,-0.012443784791465079
7.42,0.2184991435627107,0.07214036744633122,-0.10169902371557117,-0.004522945299164278,-0.010499669985803949,-0.003259270946023251
7.43,0.2092696318603674,0.07744185103056589,0.18868555591855396,0.0018313239577930657,0.008336293418885046,-0.0010457905097404792
7.44,0.20553786528453905,0.07816905461972166,-0.0868708102121521,0.012073773547547236,0.006258601104938902,-0.012758133217934939
7.45,0.21517603556795667,0.07069274422643386,-0.06108038378560591,0.012625286964920886,0.004370251911011009,0.008498298309479003
7.46,0.18682644422997674,0.0732128741891024,-0.06034425707968132,-0.0021434938096134976,-0.013500201458824454,0.0018857795728558216
7.47,0.19654069981950312,0.0935994646018014,-0.4231658409197141,-0.01683625728734826,0.004232271579951832,-0.003890023769204364
7.48,0.20924449947794144,0.08203656207677276,-0.03895136877148847,0.0068775826388367215,-0.013812131877019669,0.014776598975122356
7.49,0.23254702743697883,0.08366188591998569,-0.048572488800803164,0.015383297864990582,0.0034523754697480397,-0.0019745138745810168
7.5,0.22201936286311919,0.07478543416913472,0.17961414786068813,-0.010829200216626207,0.0020654810497838447,-0.007701930551684065
7.51,0.2189738334382729,0.07267697921944914,-0.027214451390071306,0.0018618947635273058,0.0070795405699531,0.014803293748591538
7.52,0.2253330378543661,0.08407151366656006,-0.07489016831585835,-0.002249000735835752,-0.018962905160531004,-0.011923340194663474
7.53,0.22397959075639312,0.07782523512973188,-0.07632903484734294,3.866866237399328e-05,-0.006703241744419127,0.004194390009678034
7.54,0.23090078151031077,0.08748543420459787,0.2089323793521151,0.001203168090990239,-0.006194288428500768,-0.0068550826077672
7.55,0.2110587170858121,0.08130621375099444,-0.06944779743571465,0.020777434847935983,0.026643991294364826,0.004882995198495891
7.56,0.22409009905921848,0.09341843505065615,-0.04837144956172758,0.021727348185294388,0.009577951014868668,0.0011089034921294182
7.57,0.22352519125463532,0.07973216853484658,-0.5238742248219089,0.003887655767259285,-0.011911591810131352,0.0043985415361316
7.58,0.2171554189863332,0.07776316232411909,-0.03299873315007593,0.009110771924286904,-0.010703257126921066,-0.0010717438376001706
7.59,0.22222296031159633,0.07517363889895547,-0.04258789281772156,0.008701674540838762,0.0007672270028345213,0.012231596451675087
7.6,0.21720210973104045,0.08071757352457404,-0.02741542233580436,0.003466181181613572,-0.0018021341154224046,-0.001638753703140004
7.61,0.2409622498629927,0.06804599185509631,-0.04129802927506823,0.002375488889718799,-0.004221230059399512,-0.013250163749639308
7.62,0.22525440767400035,0.08498125442992951,-0.04931153911130344,-0.003695330041845243,0.005018786637662691,0.01809929958270213
7.63,0.21825185942799685,0.08958635997979145,-0.053101308835560274,0.012074778363993746,-0.005336140794864877,0.010775464359371345
7.64,0.22231308238391456,0.07238172006952115,-0.02895115171565931,0.0015696708235854685,0.006937759770737846,-0.011114584378124783
7.65,0.21145209884559582,0.06608629103777348,-0.02526937549300327,0.022434685418658902,-0.0010951049919978384,0.0005958435581641421
7.66,0.22228286879411532,0.05561064768351587,-0.02973486312670515,-0.0029828369633039618,0.006061871762353056,-0.00692455875952107
7.67,0.22223108230607477,0.07849996373792163,-0.052416854657375986,0.024757347295148318,0.003607800360407637,0.020823018521689267
7.68,0.20319359363750572,0.06827742894177605,-0.047999187907953,0.0029168786242486245,-0.0013572185466576995,-0.006604528885443417
7.69,0.20937506268655956,0.06839080202840817,0.04292532714721879,0.015725407276643105,0.01765003854696567,0.01191356394881084
7.7,0.2113856743865366,0.07775841667080069,-0.02003062569781497,0.009300608471554998,0.0016368505135613718,-0.00880540546703489
7.71,0.22767738790607744,0.08216602803934304,-0.017114137123637272,-0.005125279796005469,0.0029227118672844744,-0.007031814815152165
7.72,0.2113999970578277,0.07042626709806699,-0.055271359375450906,0.00772545519749215,-0.002602286721876684,0.01945317468750669
7.73,0.21588803188418426,0.07052633431892195,-0.03243723681299816,0.018263713322864427,-0.0021956966620153943,0.00880009688873868
7.74,0.210238764070751,0.07688801166580639,-0.03965687871451649,-0.009349336101487186,-0.00427405080905603,0.001558760645142797
7.75,0.22218863598397565,0.07752742089865007,-0.020551564570429136,0.002149251383060119,0.020646653602195142,0.009991438748661787
7.76,0.23937318254386153,0.0595171058600443,-0.01680823085811064,-0.006971844344156285,0.009401071492067599,0.018286742837777144
7.77,0.20342826842771722,0.058641298220811294,-0.06753971577400465,-0.005946761200153678,-0.007678999869416502,0.01036564373937578
7.78,0.24034303979544763,0.0722991519832303,-0.04653290257015517,0.015031740238235466,0.012944385779685586,-0.006435671621707459
7.79,0.20965272336621288,0.07559142565155692,-0.02692563617346474,-0.00889290925606156,0.01657223158106916,0.005510100753797005
7.8,0.2222692564467409,0.06178402802015221,-0.04186222420291228,-0.00859262792344937,0.01963469077797895,-0.002737765424521058
7.81,0.20672695375827302,0.06541084514323076,-0.010562880899165782,-0.020674322502872232,-0.004886417333856213,-0.004200230703517289
7.82,0.21758602776512012,0.07404185661592322,-0.04336723959039396,-0.004487117769634832,-0.0017332676827105766,-0.015951813781955752
7.83,0.2159396273386407,0.05009505671696196,0.00961915329645891,0.0027589679904588627,0.002822979231442508,0.0011517706067489424
7.84,0.21983209584337735,0.033608163294652035,-0.024758500921558044,0.019364332729068134,0.012143253570973168,-0.0013456843429123613
7.85,0.2173213024915542,0.07798291459836458,-0.010316403237812901,0.0011239109806518658,0.01237720535193364,-0.006003970232639128
7.86,0.2004292384284756,0.07704856014743952,-0.016021330658717182,0.008921644607252083,-0.007785495133740379,-0.011363237997503713
7.87,0.22101583042649084,0.06906877216389005,-0.04416605845685718,-0.006082922867409557,0.005937322209100411,-0.014147595417417079
7.88,0.20231217522135286,0.05963596357825601,-0.041335977768039156,0.006627221890242456,0.012504099530769475,0.00030230499585594457
7.89,0.20226944900521188,0.0665116388169389,-0.0320826935796233,0.006573738224869401,0.009177637982801658,0.007094991615777387
7.9,0.2210465199078644,0.04105072473837851,-0.01976518298346354,0.022777951638283514,0.005360192285746187,0.008314532385776258
7.91,0.2041907995973018,0.06891619793203241,-0.005866001252281556,0.015818589689596055,0.0062363932254470575,-0.007462349496722543
7.92,0.21626060899856472,0.06394191108383568,-0.08496063636250846,0.0026346294315503943,-0.020648258246369698,0.0075257577360249945
7.93,0.21506156883111077,0.06174558232245974,-0.02478230574654986,0.00549781253193132,-0.019350608993013038,0.007160573938673379
7.94,0.21189206128893748,0.07194833223194612,-0.01622121135296306,-5.333044262373181e-05,0.010351584226876081,0.0031990274496442074
7.95,0.20139439183391897,0.05979144444751569,-0.012495545937264547,-0.0018536791683267557,-0.008831557950730807,-0.014364919279454751
7.96,0.20371041956110414,0.07097966986706754,0.0016039016495237642,0.0023935591199907456,-0.0195110886293857,-0.0006305820670285539
7.97,0.2214697408288344,0.06855505622522362,-0.04363519679069759,0.007147725702216176,-0.017940953578069227,0.0027859993453240896
7.98,0.2147700660826912,0.04857683604325576,-0.02448212032305943,0.0003587571002428482,-0.006159996280322343,-0.015210150041283108
7.99,0.22339724380742976,0.055137023891545574,-0.023005338988846172,0.0006055923783986061,0.02130692521596937,0.006422757046948942
8.0,0.21202316258185577,0.05897485458646407,-0.012723932725633148,0.013274270214140698,0.011941827853835452,0.024140536915980625
8.01,0.21753387994300072,0.06272497799168934,0.16801556442664226,0.0017964728365362187,0.002530961703441305,0.010864882740868925
8.02,0.18313511255660347,0.047645576738161916,-1.2323729693476195,-8.071040737702047e-05,0.0028003360205966672,-0.007622022158361953
8.03,0.2107057702376311,0.05719368040197781,0.01260948773042712,0.02388051299988145,0.0016804461238347466,0.0020617207882816227
8.04,0.20224969618004987,0.05593391490055408,0.013895999620848143,-0.002895240595788764,0.004899078512378254,0.009738854977529113
8.05,0.20724465888355648,0.06917094499746737,0.028569353643517006,0.011993926689638399,-0.0001859805945165962,0.009612782230185263
8.06,0.20092791530689583,0.05959096591398506,0.031767536074629205,0.013945459983637205,-0.005369046236375424,-0.00013159807390268152
8.07,0.20578282494953934,0.06478785697651278,-0.010173757560730242,-0.007988700967344092,-0.00034384006067161204,-0.010901109272798425
8.08,0.20694510020325083,0.06445834719649031,0.00985491110724259,0.0003323051054762074,0.004758920721321172,-5.914546946801311e-06
8.09,0.19997144854764837,0.05902849227881058,0.047531716845993575,0.012042884533487409,0.006079973702642075,-0.0058833418829606935
8.1,0.23129308556218187,0.05656038140703051,0.014670441558156735,-0.013915621816579326,-0.004847386556347581,-0.009190170675351744
8.11,0.21545152875835683,0.04684926500952942,0.019753828596693973,-0.0068758855674582505,-0.006842936054233126,-0.011459779469432394
8.12,0.1966797307184299,0.04509865749499038,-0.01773182112488894,-0.007178946613086641,-0.004458595749014198,-0.0021070131514983794
8.13,0.20896335963584503,0.05353670733838026,-0.0007212107337033098,-0.005309251978668994,0.011511611388314524,-0.002448304400847163
8.14,0.214189515374308,0.05563401794658856,0.009828232937693986,0.003502681352362372,-0.0019659850466715086,0.004841908204553864
8.15,0.22788165529911156,0.05009720396414625,0.0014829529616101171,0.010179460882380037,0.0024184301813703858,-0.002251077597187549
8.16,0.20601560050386525,0.0510481376692042,0.006688463028227091,-0.0031057707518253614,0.01149571898060063,0.014032838126337266
8.17,0.1986721322733513,0.040352932693759044,-0.033786114838652424,0.01073013889666636,-0.00830660790757651,0.011325340621829742
8.18,0.22766830709636607,0.062198181145615476,0.016182656390219874,-0.006226755553193122,0.0025885154667088083,-0.013956921078228726
8.19,0.20890245582247488,0.07215756617094934,0.0013869573993257921,0.005645501387342729,-0.0013336097392392422,-0.0015260597712754868
8.2,0.21894711949103637,0.04501477470492379,0.17355091387900268,0.00836208648050207,0.0025523695689817893,-0.004364055009103238
8.21,0.22929066366168174,0.05291344171885631,0.0032335554318429736,-0.002628434383332703,0.0010898349112444024,0.004967794724975512
8.22,0.19417237006787483,0.05509819581885884,-0.025640478194972085,-0.005058896235440887,0.006977289396251836,-0.0070702334343956605
8.23,0.20611827576601272,0.06596802338179493,-0.03396103555978583,0.00938853736318836,-0.006218859655975991,-0.008439846968492185
8.24,0.20147006613695584,0.052863081934540423,-0.023591947897678454,0.024368795066438687,0.008631876206846412,0.008070522216412251
8.25,0.20678191494344889,0.055931332720449214,-0.008352440587873345,0.007928311453562322,-0.007261054302814728,0.001186117665246093
8.26,0.21337426725830427,0.04663691331697985,0.024821074444538266,0.0089267533600864,-0.009355348668361123,-0.0002218604782495264
8.27,0.20620719722976735,0.08092650031390256,-0.03471036565896864,0.0024128833146604936,0.005149871684397362,-0.0069950504813510285
8.28,0.19904415766757488,0.05936904511149595,-0.00033051012381074725,0.0063991560620250375,0.01397953454795902,0.001338232085322309
8.29,0.2224289909964622,0.041160413738143206,-0.01623495174679372,0.043024994567142635,0.0207827216206499,-0.008711073767852243
8.3,0.2235917098764605,0.05895862393067629,0.0015208424490632654,0.032148475427245686,0.01045229625655228,0.009640811769099348
8.31,0.19788687766433216,0.04507904175391525,0.23871893869519117,0.01062627001061626,-0.010313114739030389,-0.02219414731400677
8.32,0.20250690031689875,0.03525531176238686,-0.6018945653376395,0.008016469741370467,0.00948167741158355,-0.005318502139686091
8.33,0.21408724668574758,0.04561473572704374,0.020087975576668207,0.013780015687034509,0.0073956599074661645,-0.002520209176548802
8.34,0.18213711268959124,0.05082759731087712,0.02447429935458286,0.008608403229685632,0.019606192067353503,-0.011728739522259769
8.35,0.18935811937238362,0.03383639243518925,0.026207292747197655,0.02174408015819755,0.007856433522659877,0.0034930367550350793
8.36,0.21212652226293602,0.024890077480581717,0.017306370781827007,-0.006103995439078256,0.0052268369670928835,-0.020705241777783642
8.37,0.2044523433124605,0.032861373791708386,-0.02886685093964024,0.01785471011302161,-0.004117636745566216,-0.018188345113133348
8.38,0.19881100249485256,0.03698538586121986,-0.03916471687551419,0.010565749512556554,0.012334373437638137,-0.001542380576382009
8.39,0.1948520902370486,0.03430143065378092,-0.1572663839830156,-0.007312710643103654,0.0037769707335379415,-0.002804813583822457
8.4,0.20252652237329138,0.04324436721534533,0.0029744595732580092,-0.005777498437799754,0.005683832635298845,0.0030773381678064924
8.41,0.21488539706613388,0.03504057595461826,0.031004119549752657,0.000495234712151622,-0.004627197940022561,0.008828254563554096
8.42,0.1957704154315846,0.03665626219995404,-0.009152070355239055,-0.007738253070583486,-0.006057596958774999,-0.003186393817639541
8.43,0.18771185676389565,0.052070593822988634,0.014139746723118143,0.004751216059490097,0.009918088457615097,0.01273952079854402
8.44,0.20018626228083367,0.025162493758218114,0.0040208843325558324,-0.008289444322718255,0.0008272831445382467,-0.0005785964787924174
8.45,0.20298463295984398,0.0416015180641745,0.016582619352982175,0.007482578539343031,0.012612432801284946,-0.005237537991058056
8.46,0.18736408092446682,0.021472465404883012,0.02435328816166876,0.00424106610200018,-0.002331515942527093,-0.0003149098455568181
8.47,0.2034392706976099,0.02655090224664685,0.07479334915861527,0.00693656832405822,0.005305012021714569,0.011679057053296785
8.48,0.18802815800240752,0.05043825343445202,0.004006968768682456,-0.0012354866438681663,-0.010247708178835316,0.0020131254432271947
8.49,0.1767106556264919,0.04719475178053134,-0.006604147148938385,-0.005165339941277918,0.006649444860726435,-0.01823759158963183
8.5,0.2021932461286143,0.03940735890888056,0.00039383756747323785,0.006767602855952855,-0.0009345264398311175,-0.009891280068022066
8.51,0.19128854203620807,0.025264243216836478,0.025941942669678655,-0.012772940661780965,-0.008302142960629026,-0.0051038225236846625
8.52,0.1821799146243001,0.03460673300132732,-0.02901009766339964,0.003884949146574186,-0.009874633349728395,0.008604523129197615
8.53,0.18630932125765842,0.04508204737821912,-0.017488531270666796,-0.005753472564345098,0.010593853907586126,0.0014306752227393367
8.54,0.1982199248764751,0.031055253191173703,-0.004167703746168242,0.0011139993410303507,0.0067096582152463575,0.00037735338912053677
8.55,0.18717228460914587,0.035840114869349626,0.016793076370093966,-0.0019849987511081652,0.007879650565830329,-0.014702322804482373
8.56,0.1937254311538947,0.03924483669490107,0.01694995637622758,-0.007655177619749166,-0.00646295008171573,0.007836369158834306
8.57,0.2067440863295379,0.03433548839102767,-0.012344221451797392,0.017846427786678012,-0.00032015660589332796,0.004755786542709327
8.58,0.18903221250891572,0.024350626609744155,0.001568916060968508,0.00020857202588302464,-0.010257394243048602,0.01851791257463884
8.59,0.1860223872703685,0.05444334199304485,-0.0031390760089526353,0.0116163057825364,0.0028607406406185748,0.017876845057674295
8.6,0.18707059405382084,0.032009273331305585,-0.5706320066942064,0.0038694398028670425,0.006867561196458952,0.009126185851453406
8.61,0.1951400547291225,0.033840532781938326,0.04758763281057877,0.014350976906184754,0.003398127396763629,-0.015313904814956734
8.62,0.20474158083705365,0.032098518894367156,-0.007971027299878489,-0.0006550318826178598,0.008042794758309702,-0.0019825293395277378
8.63,0.1821371761129473,0.017698362306941454,0.02373800188331804,0.0034679007449677545,0.007950564781836963,0.012420970239741452
8.64,0.18670641167440113,0.027836339435409377,0.015284285459849284,0.01905702302516743,-0.0076748279593696015,-0.0016542136436417674
8.65,0.2026214865740608,0.051256063137646225,0.029107409807171945,0.007736684252477047,-0.007628711992806224,0.012250889541485812
8.66,0.1994349136107419,0.027445925924561746,0.013468407187647458,-0.001847508270045798,-0.010589096503832178,-0.03131058174461818
8.67,0.2037539960769,0.026869126828440455,-0.01128594996834969,0.011832262432942104,0.0024727905966402614,-0.0028765902063303764
8.68,0.21362152935116346,0.04818485577071947,0.015809588720252885,0.007582652204912325,0.010068237812031778,0.0018290691007814336
8.69,0.20422678352886445,0.03968232022954599,0.008045579195896374,0.020351371578497916,0.0159972236236145,-0.002730620591188131
8.7,0.1999954935845218,0.024901924673411804,0.012383706343718652,0.013009791517431835,0.004450763681308851,0.007504850695771755
8.71,0.20625787116217362,0.01416979204863355,0.02466727865491149,0.014710617015441891,0.006800450373175433,-0.01027208080638967
8.72,0.2051157120649149,0.028478263345889758,-0.03507965879631632,-0.011254857589052408,-0.0004695112276940572,-0.009769445941072454
8.73,0.19662043104131843,0.005150642813818256,-0.015187768185603537,0.012668523748318235,0.01086629349205373,-0.011045054934518784
8.74,0.21377542968490734,0.010623091013944415,0.008615716569695706,0.01823445618645599,0.020603251748546155,0.011008478139835454
8.75,0.1748262392163757,0.02313502313419165,0.009206486487492904,0.0046201914464756525,-0.003916606146343683,-0.0065726618168437945
8.76,0.17824098806819896,0.01604206626016383,0.020681817742020034,0.0012795594876580682,0.007286907046303881,-0.011675548942828561
8.77,0.1901065499803566,0.014833743860363728,-0.023007260319601167,0.011354314255667226,-0.0023674791812797703,0.016747486917875865
8.78,0.19027218467772547,0.017688678948373164,-0.012715625220146787,0.019195909828393292,0.02836072526057897,-0.0061920647072765
8.79,0.1967063120431023,0.025247062200761436,-0.005498241501710108,0.003567883103919281,0.02147720551488424,0.0012097546657925838
8.8,0.19788364325900876,0.016451674940687055,0.03253838979247604,0.0337711455132958,0.009969406593250657,-0.0016244615472230592
8.81,0.20239813204802098,0.008535450632208562,0.024622003254945825,0.02011300634720476,-0.006997093885841076,0.0013889129569048103
8.82,0.20189057624425155,0.02168411043790603,-0.027331898994383597,0.014640907455191999,0.014954372118549386,-0.00168585181183466
8.83,0.19334914175835594,0.031252098356207125,-0.009881023569928604,0.009372662919189617,0.004503167200664092,-0.01095064079575857
8.84,0.19344918423467322,0.006210316167786462,-0.007853512120721782,0.017650179574497663,0.006310316429161959,0.0035968468076958966
8.85,0.18225250947704358,0.007526361244265034,-0.007168390407516521,0.017553346045280253,0.0010049553614046303,-0.006279450181779979
8.86,0.19731622844281704,0.009786021031065389,0.031041932062074333,0.01132199267423608,0.0023886059623339662,0.009809477344399105
8.87,0.1829281873790258,0.009093083564856485,-0.026019979047745022,0.002882859061612335,0.007357395665540933,-0.006129060263451868
8.88,0.18094348463169005,0.005991667640970867,-0.02007902988011442,0.017540855764853577,0.014545684482413784,0.01737780188723773
8.89,0.1644921895282239,-0.0022645030403164804,0.004426929013127692,-0.0025261389838720904,0.0038334008481790143,0.016358124132589212
8.9,0.18417041257182737,0.004395701343365683,0.02749283683042523,0.014121459701271828,-0.006452454386850144,0.02128377378161311
8.91,0.16703985785120437,0.02262502172120614,-0.27622063411068387,0.005773162489032596,-0.001702407914601447,0.005799738485620837
8.92,0.17544316612114882,0.005954051389501577,-0.02064625309465184,-0.00033014388324984975,-0.014930946748780911,-0.005372691731487069
8.93,0.19933868266547558,0.014538824036828681,0.005591908478277139,0.01325418412368621,-0.008551864693399327,0.015267198031375523
8.94,0.18884114562734508,-0.011065220956879004,0.18452418941696802,0.011115454910861257,-0.012100610032977095,0.014022847092434095
8.95,0.19479703911547314,0.002040885446007987,0.022067148849553145,0.011274758821053275,0.008550111657239642,0.017941399568258572
8.96,0.16677667063145504,0.001722172717797278,0.029067876212583277,-0.012696686822414704,-0.010812703197273149,0.007668864181970837
8.97,0.16214070739324013,-0.007246980510089822,-0.5765999720848433,0.013220288747967922,-0.008557471321885472,0.032778896042703336
8.98,0.18474121935315835,0.0009996274643193368,0.0297073383543442,0.02337025168270448,-0.013683774231677489,0.010650349918952081
8.99,0.17756588835521886,-0.011534836010306164,0.01616793185161303,-0.0021741267549972316,-0.013726248973973114,0.006364599137116678
9.0,0.19785528639559155,0.005817267076099116,0.03574774216702078,0.01543603230279521,0.01645917783248043,-0.0010862344857904046
9.01,0.19352686836753571,-0.009068229125800468,0.029698548102581247,-0.012149970848517076,-0.02008308561334583,0.0009959076945350014
9.02,0.18675573572858206,-0.014028256228609709,0.6068187225881964,0.012239523658946531,0.009143985658766361,0.0187294074189574
9.03,0.17928465811402053,0.00612116019567875,0.15544569800301405,-0.0008310619878526809,-0.0100172130963528,0.0094660028191666
9.04,0.1794035587990348,0.009098452788666252,-0.4467433387980039,0.018273346028826597,0.001019197049445862,0.0026251939662725603
9.05,0.1987517301541336,-0.02008672576358931,0.0019647648673491395,0.016971672692887824,0.015099677961158287,0.01304693398756045
9.06,0.19889552680472633,0.0055649426550238665,0.026583810267448056,-0.01728519442954268,-0.0008793050465011418,0.023471931954036872
9.07,0.17131283068062128,-0.010344330119921159,-0.7235355562738762,-0.015298092688350742,-0.013971695524571774,0.00028822586035583044
9.08,0.18903170353089319,-0.00912457122451671,0.24962617433804293,0.0007164706383963849,-0.007597802711426995,0.002328997780954142
9.09,0.1945601701586103,-0.022361011005748437,0.35799245363363963,0.004863427832536399,0.010949231515140306,0.014088349487186149
