timestamp, accel_x, accel_y, accel_z, gyro_x, gyro_y, gyro_z
0.01,-0.1,-400000.10000000003,99999.9,-0.017163012429129973,0.003688606319067567,0.0015874455749647165
0.02,0.0,400000.0,-99999.71068814227,-0.03432606892513725,0.0027490612137928104,0.0010508198204657593
0.03,0.0,0.0,0.273847815108752,-0.05148910309448009,0.0029148965378347287,0.001223872580159622
0.04,-0.0003714586164761344,0.0017284563824659926,0.26080454333943237,-0.06865214237151956,0.002810107823201571,0.0011572439370369603
0.05,-0.0006475130967384359,0.005179573747682298,0.24953960999773983,-0.08581517927431527,0.002766618728069673,0.0011700351750622436
0.06,-0.0009396394104158019,0.010348902534929039,0.23958547490821047,-0.10271293460670107,-0.014131867881718874,0.001433942293383359
0.07,-0.0012195652569303567,0.017217511789624496,0.2217145191796277,-0.1198757945314329,-0.010506035069601417,0.0010890022585295907
0.08,-0.001505644936740605,0.025981976676803242,0.28218369465982107,-0.13703872085746988,-0.011180899154593683,0.0012161308297965181
0.09,-7.857772158852038e-05,0.03628804741140357,0.26555015037565965,-0.1542016309553792,-0.010808557280554265,0.0011759062694435593
0.1,0.0009796029272923074,0.04829915603465906,0.25155880826410737,-0.1713645477330587,-0.010664937645147692,0.0011925441304306186
0.11,0.0021033665003364634,0.06201323813570525,0.23949235017362014,-0.1882604671891238,-0.027562490782469248,0.00144617611172079
0.12,0.0031849633039929726,0.07735755744420203,0.2196819230082525,-0.2054231796393105,-0.023275638106579632,0.0011117817966664937
0.13,0.004282008512280527,0.09510776745713656,0.2792739786183773,-0.22258599732076575,-0.02376470336543403,0.0012431658167895848
0.14,0.007053087573884707,0.11390197567351379,0.2614486951824091,-0.23974878741246464,-0.02307687805871601,0.0012084473131513359
0.15,0.009386525870498121,0.1343928089525548,0.24640186900626304,-0.25691158996891794,-0.022635150588417387,0.0012298103661765685
0.16,0.011765077729107034,0.15657803015045602,0.23336371958393443,-0.27390497794078245,-0.03922748251112247,0.0013434671513754756
0.17,0.014097817772289488,0.18079608654630874,0.24074490243997104,-0.2910675937553871,-0.034541630081590564,0.0011471712377555921
0.18,0.016426067575863724,0.2072289108312475,0.2700301004043837,-0.30823030797451595,-0.034740985339512316,0.0012335608916342663
0.19,0.02034970344027802,0.23441977386795543,0.2515111615064569,-0.3253929978857261,-0.03372809669733777,0.001215286695198649
0.2,0.023795687963464093,0.2633083056835517,0.23569157395542106,-0.3425557018386269,-0.032963652834513774,0.0012315473651865058
0.21,0.027257313731176864,0.29388867162083443,0.2218057120018102,-0.35965254930308693,-0.04922570672503511,0.0011797648977776602
0.22,0.030762506487001275,0.3277429501125084,0.2580785616679293,-0.37681512467473827,-0.044149315825342636,0.0011292080209446464
0.23,0.03408397703382132,0.36216745559869423,0.2551796273397855,-0.39397776191576583,-0.04404605337983606,0.0011609411071644975
0.24,0.03897916761274093,0.3976523172255497,0.23583401007165605,-0.41114038951543186,-0.04270511610144725,0.0011554828976975526
0.25,0.04335937085527862,0.4348436526768751,0.21905602488381248,-0.4215397827439835,-0.04161715438944667,0.0011609409348916837
0.26,0.047725609133150625,0.47372902557185625,0.2040966928706922,-0.41843805865642614,-0.057516292861381386,0.0009636310261338965
0.27,0.052306008219173396,0.5177834792746694,0.25819916759317607,-0.42310132727132027,-0.05209457103089566,0.0010119437763485132
0.28,0.056387144727332826,0.5590128452226395,0.2342356899998066,-0.42349489185286693,-0.05168613623203532,0.0010004235057660456
0.29,0.06206862609777581,0.5999610125329013,0.21383965167487418,-0.4227769555785455,-0.05002887932480532,0.0010015593344386638
0.3,0.06720375651278572,0.6413910353586516,0.19599192428998435,-0.42044504087387796,-0.04862799512506571,0.000998224400619037
0.31,0.07229605289200206,0.6828591922314331,0.18000188608979784,-0.4109966658068583,-0.06411213058927137,0.0007200040510649916
0.32,0.07774591776648293,0.7291762810268665,0.2333215214189721,-0.40866044961918235,-0.05842477245262835,0.000791828110646885
0.33,0.08246773500571866,0.7697311328414003,0.20848111774718348,-0.40307981558618466,-0.05771356624235635,0.0007660906631824649
0.34,0.08875302289861747,0.8094481786358187,0.18728616622887273,-0.3969432873314764,-0.05576300860517113,0.000767614199345802
0.35,0.09447084226282508,0.8490069146205315,0.168722430133883,-0.38979620008916466,-0.0540686807791568,0.0007604311684424026
0.36,0.10011922687556563,0.888055295362733,0.1521082486100056,-0.37616165263565515,-0.0691592853847584,0.00040471925797924474
0.37,0.1062956371411591,0.9328616542703116,0.2050529010766411,-0.36999697388743485,-0.06322824887916842,0.000501384887004494
0.38,0.11149123479898634,0.9698024320314858,0.1797806897041454,-0.36107810485585284,-0.06223724162416493,0.000463470250806271
0.39,0.11821823070159737,1.0055807602782352,0.15826150239206527,-0.3520144496499553,-0.06001721248326844,0.00046703783983802763
0.4,0.12436086744975777,1.040890351617918,0.13947158473470722,-0.34232656642990544,-0.05805398360834904,0.00045769886400899497
0.41,0.13041149654384257,1.075414463684865,0.12273137325991001,-0.32663382376672256,-0.07277657207822615,3.3747255654070925e-05
0.42,0.1371823887559749,1.1167411002688254,0.17579211176510512,-0.31854829195807477,-0.06662690602328404,0.0001547548500200891
0.43,0.14270184224914884,1.1484645883541589,0.1505848573746249,-0.3080539445030253,-0.06538196653455816,0.0001074398106977233
0.44,0.14972547954627857,1.178916677737618,0.12922562488526523,-0.2976777422085481,-0.06291882920382769,0.00011453927483869833
0.45,0.15615196686151397,1.2087822046069618,0.11068061843033661,-0.2869298630128194,-0.06071345350184747,0.00010484189162017984
0.46,0.16246780769596236,1.2377642908845132,0.09426827389802384,-0.27056670887779255,-0.07509637015906259,-0.00037576928789196556
0.47,0.16971316727983873,1.274587999766652,0.14787969728757844,-0.26178867142764833,-0.06875443791314535,-0.00023201549811459712
0.48,0.17542392543070695,1.3004088905077538,0.12314976026495117,-0.250852693200604,-0.06728279974936976,-0.00028580676241624255
0.49,0.1826162658398727,1.3249816124982772,0.10233661667413685,-0.24019757451442417,-0.0646039420870386,-0.00027398525532376373
0.5,0.18920237065727236,1.3489672163302657,0.08439891267641997,-0.22933356076057568,-0.062183972039726566,-0.000282389835903057
0.51,0.19566279698985736,1.3720795988092505,0.06865122349708486,-0.21318746006899436,-0.07625724735818507,-0.0008073677860350457
0.52,0.20327442774391025,1.4039835819801283,0.12313100757666007,-0.20448849377645237,-0.06974939660619414,-0.0006431449959334911
0.53,0.20906045720010466,1.4237918765758195,0.09916090031758529,-0.19382129469323134,-0.06807846954883107,-0.0007006401889816328
0.54,0.2163096868188462,1.4424517867794862,0.07914791383178965,-0.18352996026591123,-0.06521116350268918,-0.0006832380512205426
0.55,0.22294680190900057,1.4605913748155785,0.0620468296652632,-0.17313244308423026,-0.06260388594061819,-0.0006889574459196
0.56,0.22944639708710954,1.4779304363798929,0.0471676364011131,-0.15775241720859012,-0.0763982791280499,-0.001246280836130336
0.57,0.2373270361430077,1.504875874758227,0.10270542652790482,-0.14959792300185343,-0.06974988782810194,-0.0010642403653648718
0.58,0.24308742912279233,1.5189081562638762,0.07964642369628905,-0.13962556391366363,-0.06790637565265928,-0.001122970328601879
0.59,0.25029642250044143,1.5319320731776997,0.06055984538733128,-0.13007851165144102,-0.06487694804977251,-0.001099444710037088
0.6,0.25689012868928757,1.5445374662093059,0.044400483449891226,-0.12048798541440145,-0.06210861188326027,-0.001101382139158121
0.61,0.26333724679581877,1.5564478547247518,0.030473541201558874,-0.10619465159611674,-0.075654814419924,-0.0016798734275243151
0.62,0.27139951143477153,1.5786229791103779,0.08714458442860007,-0.09884591715543989,-0.06888964570020926,-0.001482820299624435
0.63,0.2770470017177465,1.5873124564791397,0.06503640829436108,-0.0898045062534275,-0.06689891711356132,-0.0015406832482111363
0.64,0.2841318514931565,1.595150676649837,0.04689660264567408,-0.08120741524449929,-0.06373217434402607,-0.0015107694688111122
0.65,0.2906004963179096,1.6026867347918028,0.03168346396797972,-0.0726031202028329,-0.06082745635842147,-0.0015081202610587297
0.66,0.2969158818345516,1.6096473558491198,0.018697413937118768,-0.059563719633826784,-0.0741554513583247,-0.002097749455275964
0.67,0.3050813028061636,1.6273694841117958,0.07648642943003381,-0.05314717650257922,-0.06729525111693212,-0.001888489644214781
0.68,0.31054090885785923,1.631249544296054,0.05528452529546257,-0.04514703768471592,-0.06518091799382562,-0.0019437648677089405
0.69,0.3174296064859833,1.6344382032329463,0.0380335763239259,-0.03759017188538524,-0.061899775125783735,-0.0019074318189639694
0.7,0.3237030503271468,1.6374430981969113,0.023698236439884113,-0.030045101713710363,-0.058881438469715906,-0.0018996597505415772
0.71,0.3298186376243281,1.6399945956990791,0.011574197555930255,-0.018324791063849356,-0.07202000984667811,-0.002491674431558864
0.72,0.33801687217879794,1.6536476177719805,0.07040122074641886,-0.01287903851387073,-0.06508429152634829,-0.0022729133049413214
0.73,0.3432247374379402,1.65329101935896,0.05000416431144572,-0.0059483771121626745,-0.06286795510404054,-0.0023242463740875533
0.74,0.3498560554408836,1.652397061810973,0.03353264831140734,0.0005529987391706967,-0.05949322764688341,-0.002281652258764237
0.75,0.35587461645121554,1.651432398368513,0.01995981952163106,0.007034658729342646,-0.056381934321000124,-0.0022684570550001093
0.76,0.361732524485521,1.650131966179913,0.008576682963834514,0.01743766595005898,-0.069358314481178,-0.0028554020146055437
0.77,0.36990074928400923,1.6601270870708618,0.06832062991790622,0.021929940844488623,-0.062364285675104394,-0.0026296805562788326
0.78,0.37480316857848445,1.6561084659016956,0.048594036687887865,0.027815316734029254,-0.06006541634922432,-0.002676053399299719
0.79,0.38112572395859745,1.6516958715939722,0.032763906823163325,0.03329344164451403,-0.05661573897860479,-0.002627505194941222
0.8,0.3868392932009773,1.6473162036234612,0.019813327272188985,0.0387508394645173,-0.05342998280280707,-0.0026087874607634703
0.81,0.3923909803693268,1.642710100355771,0.00902864143448312,0.04788116292201787,-0.06626962281726904,-0.0031844564555442087
0.82,0.4004734219551623,1.6494615811879498,0.06954678713810836,0.05147155121924539,-0.05923221662106838,-0.002954114697743192
0.83,0.40502600929536725,1.6423349667959997,0.050342374180445404,0.05636802147360821,-0.056868137094030075,-0.0029948086216899338
0.84,0.41099746047132957,1.6349446207186702,0.03500492972818847,0.06088396047504633,-0.05335997864931485,-0.0029407265258994406
0.85,0.4163647379552132,1.6276793872549433,0.022528322043413596,0.06538227310181514,-0.05011610954456982,-0.00291655344603474
0.86,0.42157026689668975,1.6202867581682767,0.01219425207032998,0.0733108232359538,-0.06284255283957381,-0.0034759015395115812
0.87,0.42951781659798793,1.6241971971808766,0.07333720191127213,0.076070583524316,-0.055774533562485774,-0.0032430610870763273
0.88,0.4336847640747793,1.6144830732756077,0.054506904501039344,0.0800530159261307,-0.05336047888370807,-0.003277617565853594
0.89,0.43927109162011924,1.6046212930120873,0.03951590964668128,0.08368401894062844,-0.049808227368852875,-0.0032185045896217313
0.9,0.4442588951728693,1.5949646185120514,0.027369204156357796,0.0873027462842462,-0.04652054180809158,-0.0031890780577987212
0.91,0.44908626128811746,1.585268466612888,0.017343876086428622,0.09411539723319197,-0.05915538144075244,-0.0037281134779166615
0.92,0.45685612752435767,1.5867200927743852,0.07896632467918607,0.09612565342525044,-0.052067499915546406,-0.0034946730267725874
0.93,0.46060951360019087,1.5748984741748018,0.06037198398090027,0.09927817219175057,-0.049616731671153276,-0.003522855065428695
0.94,0.46578434505853417,1.563030985600733,0.04559252014146864,0.10210917827603488,-0.04603282711238786,-0.0034592714242403853
0.95,0.4703669552121037,1.5514364268298664,0.03364397617389159,0.10493428493199973,-0.042713703468775586,-0.0034248993093122003
0.96,0.4747914448492013,1.5398790750964508,0.02379888155878973,0.11072415825774215,-0.055276603672469914,-0.0039405672180597125
0.97,0.48234680892017545,1.5392288212012772,0.08576676869154198,0.11206939706664007,-0.04817778227770491,-0.0037082065841574047
0.98,0.4856659279772052,1.5257361072329445,0.06728614896367446,0.11447922808368577,-0.04570173787117622,-0.0037299622260126516
0.99,0.4904098808556495,1.512285438245442,0.052599974873501765,0.11659722409348608,-0.042096834790591536,-0.0036625039760635894
1.0,0.49456839881972803,1.4991638342465308,0.04073498023338118,0.11871593281119402,-0.03875689605576535,-0.0036235747111826432
1.01,0.4985719569008257,1.4861452072878478,0.030959224401883034,0.12357819169847936,-0.051265660463878815,-0.004113640811373685
1.02,0.5058816125123877,1.4837221697305836,0.09315399021936344,0.12434202824758245,-0.04416319225238088,-0.003883830246268056
1.03,0.5087523109633535,1.4689503676734716,0.07468392394294199,0.1260954673881953,-0.041671653791232915,-0.00389925902697937
1.04,0.5130523410984411,1.4542953884699727,0.059992130809760624,0.1275858158920153,-0.03805479871592651,-0.00382854035635735
1.05,0.5167740494751993,1.4400146621440513,0.04811545126770511,0.12908323173379027,-0.03470308860482223,-0.0037855007666033067
1.06,0.5203446483748042,1.4258923422971748,0.03831760160721842,0.1331116265122032,-0.04717375993670553,-0.004248439620857252
1.07,0.5273826173426976,1.4219967676964984,0.10063821907380088,0.13337412971830806,-0.04007351001033049,-0.004022452153514961
1.08,0.5297966324455117,1.4062942094028585,0.08209561671357335,0.13455397765252028,-0.03757478066674046,-0.004031774845026613
1.09,0.5336453852046452,1.3907710265570472,0.0673192926736732,0.13549810415426294,-0.03395359343941991,-0.003958413472033611
1.1,0.536923110651677,1.375657218751769,0.05535546150348125,0.13645510289710008,-0.030597755149301787,-0.003911749629192617
1.11,0.5400541210166809,1.3607476246946248,0.04546366207947017,0.13973974070595158,-0.04304473379215338,-0.004346640503793697
1.12,0.5467992465577054,1.3556508938350476,0.10782704630507567,0.1395758297605991,-0.035951334291264514,-0.0041255657700406045
1.13,0.5487535515220909,1.3393238952730258,0.08914840260665358,0.14025983881239418,-0.03345241303567631,-0.004129097484660307
1.14,0.5521487201549935,1.3232276016239553,0.07422791185263122,0.1407338558320032,-0.029833263657486165,-0.004053702689712225
1.15,0.5549802033784357,1.3075666859307944,0.06212033888175483,0.14122584376748648,-0.02647971342866213,-0.004003923535968081
1.16,0.557669773102315,1.2921469635429617,0.05208124623123922,0.1438518138539926,-0.03891588499363062,-0.004410355206730435
1.17,0.5641052977660432,1.2860922397095464,0.11442154154828188,0.14333038713580862,-0.031832917787714854,-0.0041951137571173145
1.18,0.5656014609362048,1.269407354484997,0.0955614535946836,0.14359040404092874,-0.0293396660339836,-0.004193240326029998
1.19,0.5685451601092351,1.2529943166583735,0.08045481982854596,0.14366437800561307,-0.02572784131009326,-0.004116403223862029
1.2,0.5709324417044193,1.237034504875112,0.06816408506082894,0.1437606493409126,-0.02238193139697835,-0.0040640267007333005
1.21,0.5731828919008919,1.2213448637510282,0.05794106670009569,0.14580724478891988,-0.03481879577961236,-0.0044420117584933186
1.22,0.5792960299637329,1.214548193679832,0.12020821339220333,0.14499080552692872,-0.027748959169623486,-0.0042333692144553665
1.23,0.5803395974170178,1.1977348295388879,0.10113731346628185,0.14489238914016486,-0.025266255084940948,-0.0042265266703242895
1.24,0.5828377611678814,1.181225303632516,0.08581808788932221,0.14463004452081163,-0.0216661114441003,-0.004148812402604055
1.25,0.5847865926238149,1.1651796483036492,0.07331977862179428,0.1443935447417207,-0.01833227913348363,-0.004094353835279178
1.26,0.5866038398658069,1.1494259666733342,0.06289071283305248,0.14593389732517656,-0.030780075758496186,-0.00444425245681564
1.27,0.5923853545922175,1.1420776885273654,0.12504860345430302,0.14487851146849123,-0.023725333263033895,-0.004242833149058331
1.28,0.5929852651609391,1.1253309316217042,0.1057512105617775,0.1444808704376731,-0.02125721128568927,-0.004231490100240888
1.29,0.5950470779503281,1.1089118619622695,0.09020610860943634,0.14393958694923323,-0.017672311819735054,-0.004153431689758893
1.3,0.5965663663157206,1.0929610221666053,0.07748846638122586,0.1434269475968627,-0.014354212742514845,-0.004097394197631144
1.31,0.5979593793675742,1.0773175950262726,0.0668433926698242,0.144527945588979,-0.026822038471975836,-0.004419846999217308
1.32,0.6034031746529611,1.0695839507235405,0.12886784913845872,0.14328341679024656,-0.019783749112893323,-0.004226146900043916
1.33,0.6035712148400041,1.0530674851949584,0.10933955843839271,0.14263955825133404,-0.017333523611352188,-0.004210789566502103
1.34,0.6052085827626397,1.0368953826755956,0.09356606877730655,0.1418705598174182,-0.013766758663403817,-0.0041328832217456925
1.35,0.6063098757033702,1.0211904556456375,0.08062763567906472,0.14113231008008045,-0.01046738387165759,-0.004075749947018063
1.36,0.6072901731063451,1.0058027951487247,0.06976643154743556,0.14185470635687297,-0.022963301498647615,-0.004371619339193774
1.37,0.6123929072571199,0.9978276685984611,0.1316431677356178,0.1404648875763514,-0.01594233198075627,-0.004186018215012637
1.38,0.612143211412286,0.9816767092019063,0.11188852874433053,0.13962190027370772,-0.013512705020785368,-0.004167137892358463
1.39,0.6133702784844042,0.9658805312895424,0.09589263298970252,0.13867056461345306,-0.009966396588606426,-0.0040898395865956285
1.4,0.6140672942939185,0.9505458774583531,0.08274002446739814,0.1377514532782524,-0.006688173759237468,-0.004032067551468224
1.41,0.6146484869520852,0.9355334962535267,0.07167022532783562,0.13815009773282363,-0.019219310118266664,-0.0043023869139990935
1.42,0.619409214258626,0.9274402164294315,0.13339290680036697,0.13665328332326093,-0.012216129970124076,-0.004125159693567848
1.43,0.6187578130939508,0.9117643917022633,0.11342328709140759,0.13565270143457092,-0.009809283883851244,-0.00410324241545286
1.44,0.6195905253206235,0.8964483660278688,0.09721737720624901,0.13455894046826555,-0.006285274750720794,-0.0040269655895756595
1.45,0.6198987302249992,0.8815843708376292,0.08386326046050385,0.1334983217202234,-0.003030154483319032,-0.0039689810079211124
1.46,0.6200961109770198,0.867043496910469,0.07259809345683266,0.1336224711036759,-0.01560278802305797,-0.004214910968148631
1.47,0.6245159545847923,0.8589366563427348,0.13416656463149934,0.13205183046543706,-0.00861754918860151,-0.0040462383601122765
1.48,0.6234803730018057,0.8438227947138444,0.11399825414315501,0.13093004067218417,-0.0062352251141448035,-0.004021756536740449
1.49,0.6239360908569247,0.8290691408063822,0.09759929596953043,0.12972871711537579,-0.0027349540275459967,-0.00394687079244194
1.5,0.6238723239718191,0.8147548725645493,0.08406061610344295,0.1285609678716477,0.0004955174189758987,-0.0038890656742450957
1.51,0.623702504193302,0.8007610547267063,0.07261728456775529,0.1284546399204627,-0.012124120809943325,-0.004111856776208336
1.52,0.6277843618554546,0.7927283046171851,0.1340360017998421,0.12683866605208294,-0.005156723407538413,-0.0039518351866261224
1.53,0.6263832652281254,0.7782430881775326,0.11368858255700331,0.1256273320006632,-0.002800287241953995,-0.003925241006624653
1.54,0.6264804234798471,0.7641146048698033,0.09711654491262323,0.12434868834298016,0.0006751483185813041,-0.0038520716682775504
1.55,0.6260625681225873,0.7504103366073878,0.08341301473535623,0.1231036349516895,0.003879768308418442,-0.0037948015651505726
1.56,0.625543159836206,0.7370209123180871,0.07181124486166368,0.12280598358441559,-0.008791679269911173,-0.003995762644935475
1.57,0.6292914425237717,0.7291347025528694,0.13308793104016559,0.1211689385612097,-0.0018418253139942786,-0.0038444134494602113
1.58,0.6275443291853255,0.7153271635118585,0.11258291498172923,0.11989542515704299,0.0004876773570721927,-0.0038161338427510354
1.59,0.6273021416580704,0.7018696584637496,0.09585946417978164,0.11856550895887069,0.003937469201884049,-0.0037449622745586966
1.6,0.6265488404744168,0.688819232017579,0.0820123144418261,0.11726884834419406,0.007115328418742418,-0.0036885450231430527
1.61,0.6256981812785556,0.6760756367540921,0.07027315863439298,0.1168145438838735,-0.0056120900374523035,-0.0038690166473158106
1.62,0.6291185833728896,0.6683948783958726,0.13141767851720942,0.11517688949326642,0.001320673110603055,-0.00372629486900201
1.63,0.6270455200463321,0.65529872127712,0.11077740181164586,0.1138646754018694,0.0036224715350825737,-0.003696727839274207
1.64,0.6264837259972733,0.6425432667001019,0.09392484755288422,0.11250575036693372,0.0070460579773216885,-0.003627792410411968
1.65,0.6254141365025223,0.6301762857319204,0.07995582246067556,0.11117945588159887,0.01019649896331944,-0.003572507738172876
1.66,0.6242510538473356,0.6181061911192387,0.0681007024194713,0.11059905944142391,-0.002590461172636319,-0.003733840110056665
1.67,0.6273503527798319,0.6106778242909172,0.129124147187909,0.10897786560077105,0.00432578361426861,-0.0035996425462535265
1.68,0.6249717490575124,0.5983135640263981,0.10837089988946502,0.10764693655839118,0.006599344346339033,-0.003569154692999144
1.69,0.6241103972781659,0.5862785713972585,0.09141137039314629,0.1062778727722016,0.009996375099103068,-0.0035026522886885186
1.7,0.6227439839157078,0.5746124147520959,0.07734194547026618,0.1049405787032658,0.013118958163444851,-0.0034487421540681205
1.71,0.6212875948014007,0.5632316899095713,0.0653919115212176,0.10426090360235257,0.0002694301133947044,-0.003592276942737592
1.72,0.6240734774409784,0.5560921455582957,0.12630587436390783,0.10267023028725179,0.007169821037624062,-0.00346644977571383
1.73,0.6214098951295988,0.5444690587097512,0.10546123914600969,0.10133744882079423,0.009414816980297471,-0.0034353748375085405
1.74,0.6202691616269407,0.5331621688142718,0.08841605900755667,0.0999740883246945,0.012785124366672092,-0.003371462819040907
1.75,0.6186255202411672,0.5222038235075388,0.07426685464828608,0.09864144960093979,0.015879599530244794,-0.0033191323655558003
1.76,0.6168950622631453,0.5115183174453364,0.06224203449534116,0.09788590534541175,0.002964980978532152,-0.0034461879621462983
1.77,0.6193759750766636,0.5046948670894835,0.1230580551858651,0.09633715592386666,0.009850252577868996,-0.0033285338795894445
1.78,0.6164479681614043,0.49381275719184714,0.10214242707640153,0.0950166051840327,0.012066537364519875,-0.003297172142342554
1.79,0.6150480032662831,0.4832325477011068,0.0850316693856712,0.09367210099934083,0.015410112628200547,-0.0032359706644638515
1.8,0.6131467138920099,0.47298026355946376,0.07082203225650119,0.09235712646614387,0.018476396429950272,-0.003185389676332643
1.81,0.6111614036147239,0.4629874124262301,0.05874124123117497,0.09154604272259413,0.005494631838220942,-0.0032972494300835243
1.82,0.6133464235591468,0.456499403433952,0.11947039687321137,0.09004828808213158,0.012365571257725378,-0.0031875342743261648
1.83,0.6101744046982382,0.4463501852924878,0.09850265533017932,0.08875158895013416,0.014553157903722944,-0.0031561527005343993
1.84,0.6085352056073301,0.4364877022311475,0.08134484037469747,0.0874367170063038,0.01787013157526618,-0.0030977473005534568
1.85,0.606395709691343,0.42693247344516294,0.06709256511250317,0.08615007588228957,0.020908287732449293,-0.003049052055900857
1.86,0.6041746245177837,0.41762273848888753,0.0549730511512081,0.085301005195118,0.007857755534710796,-0.003146955087467614
1.87,0.6060733477403213,0.41148271577640116,0.11562566982092903,0.08386127905412603,0.014715188690566506,-0.0030449140466447954
1.88,0.6026774774609001,0.4020518272440654,0.09462297651197105,0.08259788066981238,0.01687423160895184,-0.0030137469941695933
1.89,0.6008187825135014,0.39289194706526587,0.07743489042866258,0.08132132499232603,0.02016485704768266,-0.0029581913737215144
1.9,0.5984602809594453,0.3840188303172454,0.06315605592277507,0.08007162695921988,0.02317508012468188,-0.002911486800298222
1.91,0.5960222610124077,0.3753769750503011,0.051013354092077634,0.07919962587451677,0.010054562488027503,-0.0029966210319038507
1.92,0.5976447066063928,0.3695916923973641,0.11159882989275616,0.0778231923227849,0.016899343011407712,-0.002901964382345826
1.93,0.5940448017510702,0.3608593428339191,0.09057652730071197,0.07660063683142845,0.01903012264179024,-0.0028712147937716443
1.94,0.5919860031033952,0.3523819764339464,0.07337313670419121,0.07536924893202622,0.022294762028700496,-0.002818533721295611
1.95,0.5894273719131427,0.34417125405639126,0.05908203379867416,0.07416329885053191,0.02527736342122459,-0.0027738957688746386
1.96,0.5867909387891057,0.3361774713184218,0.0469299076133467,0.07328118772119377,0.01208601827871577,-0.0028473928497157273
1.97,0.588147465150346,0.3307487967418865,0.10745659730027057,0.07197178243819204,0.01891901857744311,-0.0027598112566282165
1.98,0.5843629235102732,0.3226910642339931,0.08642818617232706,0.07079594516079309,0.0210219280197172,-0.0027296522127072233
1.99,0.5821229952629459,0.3148722132095827,0.06922262751452024,0.06961497893479841,0.024261040217751426,-0.0026798444822520246
2.0,0.5793827159450426,0.30730041370219396,0.05493175737392164,0.06845800751001263,0.027216435896732682,-0.0026373226352637102
2.01,0.576566005592305,0.29993131260397377,0.042782207065883426,0.06757660965405399,0.01395377079722622,-0.0027002544762784633
2.02,0.5776672372392877,0.29485703493037363,0.10325739063787864,0.0663366564803474,0.020775874708939244,-0.0026194238589413808
2.03,0.5737169757247251,0.2874468231439664,0.08223456726241807,0.06521196294865159,0.02285140788005907,-0.002590000401836384
2.04,0.5713144149621652,0.28025950051357995,0.0650381923961163,0.06408528658774845,0.026065537702591575,-0.00254304179161397
2.05,0.5684105172532039,0.27330028725458533,0.050758317833299316,0.06298115848995263,0.02899423728280423,-0.0025026616549956794
2.06,0.5654312246539117,0.26652975229524145,0.03862163844736699,0.062109519618845345,0.01566008470162509,-0.0025560383197585864
2.07,0.5662879876411342,0.2618042949009691,0.09905152856148902,0.06094032425992302,0.022472181329455054,-0.00248162428780779
2.08,0.5621903917496507,0.2550121624977919,0.07804426552127097,0.05986994567430407,0.024520922271087025,-0.0024530554316635296
2.09,0.5596431703414062,0.24842718939765973,0.06086672787120051,0.05880023219659193,0.02771069080625741,-0.0024089016136457234
2.1,0.5565931851947425,0.2420521294510536,0.04660696280467391,0.05775163322286858,0.030613287607939566,-0.002370667514137939
2.11,0.5534685188535171,0.2358520631773331,0.03449183776815801,0.056897222195029885,0.017207781448572733,-0.002415436242426108
2.12,0.5540917832858039,0.23146711239263595,0.09488162480586482,0.055799144856855595,0.024010759869173184,-0.0023470981109810847
2.13,0.5498646659574113,0.2252619865217298,0.07389828176940227,0.054785173560499556,0.02603337292651716,-0.002319478968648952
2.14,0.5471901913356447,0.219248677097994,0.0567476503210429,0.053774071578284226,0.029199468654696272,-0.0022780683282658115
2.15,0.544011112464382,0.21342790152090174,0.042515574838475345,0.05278267645049744,0.032076630512649,-0.0022419658823277016
2.16,0.540757757069299,0.20776886163531572,0.03042919308526848,0.05195156847017097,0.018600183602463155,-0.0022790110499789637
2.17,0.5411585854397938,0.2037139173438618,0.0907831152563432,0.050924177190274006,0.025394928217678036,-0.0022164054431647847
2.18,0.536819153788004,0.19806370282537955,0.06983056887399641,0.049967783734092455,0.02739214888592921,-0.002189809408562329
2.19,0.5340342372073259,0.19259044808705994,0.0527134593131251,0.049016070049153704,0.03053531940091655,-0.002151065741051824
2.2,0.5307424897726953,0.1872932149638018,0.03851525034903602,0.04808269240836156,0.03338778004581177,-0.00211706434905932
2.21,0.5273765757107807,0.1821449570016398,0.026463437556856206,0.04727973580625767,0.019841062488577234,-0.0021472081922871387
2.22,0.5275660760872825,0.17840781229239155,0.08678486716817702,0.04632194217347483,0.026628448857603716,-0.002089992246821785
2.23,0.5231309047093458,0.17327990761373258,0.06586865117341745,0.045423515492477196,0.028601075153758454,-0.002064473182334862
2.24,0.5202517358227077,0.16831466950861795,0.048790365898554455,0.04453123104672083,0.03172211935689675,-0.0020283082393776665
2.25,0.5168631511365263,0.16350983965907062,0.034630935754620396,0.043655957140138806,0.03455067024934487,-0.0019963634736966367
2.26,0.5134002297713103,0.1588417754661009,0.022618292092602132,0.04288492485655678,0.02093458854491365,-0.0020203674282109636
2.27,0.5133895130415844,0.15540893240739706,0.08290983087633208,0.04199510372098893,0.027715479585338265,-0.001968201610978857
2.28,0.5088745229331337,0.15077066279900464,0.06203427964202035,0.041154375868324475,0.02966436385100376,-0.0019437959984428524
2.29,0.5059166496956813,0.14628138796268786,0.04499895028153844,0.040320946497608534,0.03276412453294154,-0.001910111865287686
2.3,0.5024464450420485,0.14193782380544917,0.030882086674566267,0.03950325397381484,0.035569607074045405,-0.0018801677271013714
2.31,0.4989014688983051,0.13771940480467038,0.01891212530580333,0.03876698082966694,0.02188528395224211,-0.001898734252372253
2.32,0.498701609505936,0.1345764328064547,0.07917570330917556,0.03794307550203351,0.02866052643773966,-0.0018512848081102503
2.33,0.4941220517473699,0.13039540995407606,0.0583440937429458,0.037159232301202515,0.03058656751506879,-0.0018280138301966353
2.34,0.49110036490773723,0.12635037315078534,0.04135482118527989,0.03638357565061622,0.03366592427427118,-0.0017967051194648304
2.35,0.487563127757884,0.12243726875027505,0.0272833243819548,0.0356224387900553,0.0364492223487403,-0.0017686961458238998
2.36,0.48395043494631196,0.1186383035545191,0.01535860643109288,0.0349229455845895,0.022697977291761394,-0.001782470922771274
2.37,0.4835724346641257,0.11577014628727511,0.07559558040881598,0.03416255991775899,0.029468398603445106,-0.0017394119700248959
2.38,0.478942878252564,0.11201456363352236,0.054810268217408975,0.03343433880312878,0.03137253435309044,-0.0017172834962910855
2.39,0.4758715998331997,0.10838264834944766,0.03786925677040642,0.03271495866908742,0.03443239682519246,-0.0016882393499955833
2.4,0.47228127589393765,0.10486980002610835,0.02384507046038209,0.03200894128562929,0.03719442965639862,-0.0016620925584222334
2.41,0.4686145782273332,0.10146071367955756,0.011967333355400456,0.031347546707301506,0.023377760103262386,-0.001671666964871109
2.42,0.46806933266196893,0.09885195058956242,0.07217858130736943,0.030648025346837127,0.030144165212475295,-0.0016326822601423218
2.43,0.463403656000283,0.09549082150783761,0.051441129347296055,0.02997380157189088,0.03202736536124954,-0.001611692718578906
2.44,0.46029633128163994,0.09224174686295328,0.03454981248651734,0.029308870844005883,0.03506866675067043,-0.0015847986145807653
2.45,0.45666621592332923,0.08909977069038177,0.02057414619116571,0.02865620800295921,0.037810382062981915,-0.0015604352776886457
2.46,0.4529585903290112,0.0860518131062804,0.00874442323883784,0.02803362928547715,0.023929945302282353,-0.001566349060235666
2.47,0.45225685794347825,0.08368688028781435,0.06893043329014859,0.027392127273413662,0.030693113976677032,-0.0015311334516796597
2.48,0.4475682435689521,0.08069022744194854,0.0482417299885185,0.026769989577808666,0.03255637329500089,-0.001511269572329614
2.49,0.44443773620672644,0.07779472696256562,0.03140088622899384,0.026157422864032123,0.035580064211441324,-0.0014864089354825452
2.5,0.4407804689487982,0.07499523103859929,0.017474327815847346,0.025556092474792406,0.038302431705279444,-0.0014637461824847547
2.51,0.4370443518175726,0.0722806413122612,0.005693057953948255,0.024972535676096808,0.024360027469974316,-0.0014664902561175987
2.52,0.43619672532191345,0.07014401628424594,0.06585400974756794,0.02438607849452076,0.031120711703502908,-0.0014347508492211797
2.53,0.43149765757144465,0.06748301800030276,0.04521437690918617,0.023813895236648362,0.03296504352009147,-0.0014159912713849786
2.54,0.4283561475570963,0.06491297767752258,0.028424235027912914,0.023251412170084335,0.03597208612900125,-0.0013930468930030016
2.55,0.42468370928583354,0.06242869400097106,0.014546852575847424,0.022699197428787486,0.038676091279656176,-0.001371999138699293
2.56,0.42093089353878455,0.06002082656664243,0.0028139794228110304,0.02215443815797078,0.02467364506106948,-0.0013720184567251332
2.57,0.41994777353115964,0.05809718178539924,0.06294981758081519,0.02161997320720518,0.03143256673325845,-0.001343475515104146
2.58,0.41525003889431034,0.05574428133314768,0.04235910705752133,0.021095449889347376,0.03325899679809191,-0.001325792253829265
2.59,0.4121090230979618,0.053472841869961485,0.02561944021373108,0.02058063003506757,0.03625035929707509,-0.001304647525884509
2.6,0.4084327358522266,0.051277724821829906,0.011790873140071767,0.02007517361481287,0.038936997490554535,-0.0012851277307860038
2.61,0.40467437043556487,0.04915114192982628,0.00010593339538900182,0.01956862898138208,0.024876544589177787,-0.0012828241774855787
2.62,0.40356594128265755,0.04742547062619451,0.06021643240927688,0.01908306940200623,0.03163439336087445,-0.0012572117822806223
2.63,0.3988806311983062,0.04535445373932134,0.039674111729226524,0.018603798440720697,0.03344395406829711,-0.0012405715533172772
2.64,0.3957509263119441,0.04335608252858947,0.02298432090874769,0.01813412864617114,0.03642060550172588,-0.0012211115259759962
2.65,0.3920814553648455,0.04142537711970817,0.00920386027836173,0.017672979459762192,0.03909087652070811,-0.0012030322936900668
2.66,0.38832804709620916,0.03955591388660196,-0.002433938428580973,0.01720377197150628,0.024974546849664332,-0.001198767560739665
2.67,0.3871042549330461,0.038013631247224566,0.05765088232578819,0.016764033640082703,0.031731978302175064,-0.0011758340520894675
2.68,0.38244177089419296,0.03619967660739576,0.03715610973564765,0.016327537165116333,0.03352570328484102,-0.0011601994573365725
2.69,0.3793335185631186,0.0344502134907998,0.0205152965460087,0.01590045212820689,0.03648860870747892,-0.001142311730119675
2.7,0.3756808767096942,0.03276049934441971,0.006781955317336497,0.01548110542085371,0.039143511578612414,-0.0011255862500333827
2.71,0.3719422942149997,0.03112530372106903,-0.004809755953516515,0.015048119510918195,0.02497351523246271,-0.0011196846652429327
2.72,0.3706128271163678,0.029752327250776034,0.05524898205599982,0.014651151965934108,0.031731149255370766,-0.0010991928890034107
2.73,0.3659828878488369,0.028172033808004926,0.034800671508961045,0.014254918366595874,0.03351006835736807,-0.0010845234667322295
2.74,0.3629055618903365,0.026648715056865058,0.018207701257821896,0.013867835131109276,0.03646018435519079,-0.001068098924794982
2.75,0.3592791157380759,0.02517792854206391,0.004520274909936006,0.013487766597911286,0.03910071256612474,-0.0010526417695197673
2.76,0.35556459538232943,0.023755481528553446,-0.0070266053420198205,0.01308969841840775,0.024879326163632767,-0.001045393052930022
2.77,0.35413886562807306,0.022538292618889955,0.053005620630486305,0.012732510405243844,0.03163774559414168,-0.0010271204352210476
2.78,0.3495505162609547,0.02116968776277872,0.03260249742176313,0.012374025283473023,0.03340288022850333,-0.0010133735811118265
2.79,0.34651293173926234,0.019851151265015687,0.016056053171453755,0.012024372311716675,0.03634115080167699,-0.0009983069889305785
2.8,0.3429214098926714,0.018578590079698643,0.002413171431570049,0.01168106687669136,0.03896828789279828,-0.0009840347769623327
2.81,0.3392395635826162,0.0173487083898749,-0.009090287154123189,0.011316467955116781,0.02469784169776843,-0.0009756967049299998
2.82,0.33772669199017,0.016274398362270404,0.05091500597131926,0.010996148216454664,0.03145759121157836,-0.0009594351762708307
2.83,0.3331883150181625,0.015096929537605774,0.030555654024766454,0.010672920350476667,0.03320995010394925,-0.0009465669425930322
2.84,0.3301986391268663,0.0139632047790883,0.014054282280184793,0.010358161767787236,0.036137302913431035,-0.0009327574077796055
2.85,0.32665014209509735,0.01286951754053689,0.0004544529463856861,0.010049137607398817,0.03875201844568283,-0.0009195893424439066
2.86,0.32300896679160473,0.011813342020161599,-0.011007104232518827,0.00971645292312805,0.024434884265373685,-0.0009103903051173561
2.87,0.32141776908911623,0.01086964410035307,0.04897087049648974,0.009430186803698453,0.031196469516171783,-0.0008959460948964153
2.88,0.3169370970246277,0.009864157490824255,0.028653771959596952,0.009139769674832331,0.032937044832907325,-0.0008839118760659693
2.89,0.31400286155669477,0.008896642640365826,0.012195921126334497,0.008857425229289949,0.03585438780867218,-0.0008712631961561708
2.9,0.31050487330208654,0.007963806218924674,-0.001362433366125515,0.008580253573519908,0.03845763370530107,-0.0008591214922037964
2.91,0.30691176210906335,0.007063778681981603,-0.012783685239270426,0.008277854574498016,0.02409621356142538,-0.0008492629338426778
2.92,0.30525073732468044,0.006239088250481473,0.04716664173010088,0.008022936956079814,0.030860100563280243,-0.0008364562546990044
2.93,0.30083486686427463,0.005387796271349998,0.026890209881003102,0.0077629463436357515,0.03258986441894784,-0.0008252113680137392
2.94,0.2979629821830976,0.004569224891781687,0.010474262053250527,0.007510607576831662,0.03549808272458059,-0.0008136322729457215
2.95,0.29452238312854817,0.003780512045636897,-0.003044250185268993,0.007262928774530302,0.038090789981358585,-0.0008024424821910193
2.96,0.29098413787398414,0.0030203421275132314,-0.014426839758385768,0.006989141818873748,0.023687505544482304,-0.000792101217194483
2.97,0.28926145862806507,0.0023037272356418725,0.04549558197730619,0.006762986852619231,0.030454120288904818,-0.0007807658576040372
2.98,0.2849168662355517,0.0015901672512086407,0.025258188225407707,0.0065311149576023735,0.0321740216251449,-0.0007702660282446202
2.99,0.28211363659380595,0.0009045669813190216,0.008882485333927548,0.006306458038235015,0.035073974970610614,-0.0007596703309033231
3.0,0.2787367179779565,0.0002445056779265542,-0.00459784753381598,0.0060859943304911734,0.037657050726142956,-0.0007493615781051463
3.01,0.2752595631116961,-0.0003908695234144943,-0.015943441118437818,0.0058391250039062665,0.023214333500490777,-0.000738691978461775
3.02,0.27348306782304377,-0.001009666554807609,0.0439509009808603,0.005639273062058381,0.02998406179775589,-0.0007286748204591829
3.03,0.2692156265360346,-0.0016006799619106005,0.023750896751550954,0.005433299579321806,0.03169502362283217,-0.000718876579895946
3.04,0.26648676662022197,-0.00216803551111866,0.007413761737851132,0.00523409521050973,0.034587543914707836,-0.0007091832465941968
3.05,0.26317924608276755,-0.0027137090086171156,-0.006030064918505218,0.005038660615850013,0.037161868869892076,-0.000699688386411176
3.06,0.2597688437622203,-0.00323817117120484,-0.01734033318712136,0.004817014343483805,0.022682151112205177,-0.0006888244386392574
3.07,0.2579460306662007,-0.003768739027520951,0.04252584528074976,0.004641136571077866,0.029455338644753408,-0.0006799849161955657
3.08,0.25376102803509326,-0.0042511674536171995,0.022361579476992688,0.00445893709140795,0.03115825562091633,-0.0006708459230066265
3.09,0.25111168056923816,-0.0047138115100153755,0.0060613333108250345,0.004283057864666434,0.03404414493725596,-0.0006619790751414698
3.1,0.24787871880871393,-0.005158203819632945,-0.007347654724654262,0.004110565542806793,0.03661057111086583,-0.000653234780488733
3.11,0.24454018509922903,-0.005584504556566117,-0.018624257656085774,0.003912464883315819,0.022096277464067934,-0.0006422920120620861
3.12,0.24267820795786932,-0.006035774084978129,0.04121376759869122,0.0037583656922546443,0.02887323003843094,-0.0006345015242116196
3.13,0.23858036497070856,-0.0064224122020561936,0.021083600447724393,0.003597917780428388,0.030568966402429506,-0.0006259808160337454
3.14,0.23601511928372787,-0.006792741213956788,0.0048185754142338055,0.003443343314064676,0.0334489952777577,-0.00061786967343194
3.15,0.23286133768118944,-0.007147856848632728,-0.008557223480920584,0.003291810740500009,0.03600834408344118,-0.0006098164649610627
3.16,0.22959925967125372,-0.007487671780381788,-0.019801798707419493,0.003115609720697183,0.021461883903451422,-0.0005988937417708219
3.17,0.22770492515089558,-0.007867931923755123,0.04000817946270274,0.0029812275334154766,0.028242867886151143,-0.0005920350331597321
3.18,0.22369841600422546,-0.008170467218349131,0.019910493156416464,0.00284061479535859,0.029932255686854765,-0.000584093218095343
3.19,0.22122132741220213,-0.008459799634152887,0.003679043310000907,0.0027054349624058916,0.032807161691502586,-0.0005766719937759956
3.2,0.21815082646980954,-0.008736598147152108,-0.009665188303031869,0.002572987214168421,0.03536022232021643,-0.0005692542195238939
3.21,0.21496928021891293,-0.00900058298114459,-0.020879342166324477,0.0024170830345703843,0.020783982672269934,-0.0005584354171623663
3.22,0.2130490468332802,-0.009317500850869465,0.03890278977181083,0.0023004895521551417,0.0275692255945132,-0.0005524019372990247
3.23,0.20913751939577452,-0.00954657464191655,0.018835996593580262,0.0021779039738032855,0.02925306323060434,-0.0005450013326218708
3.24,0.20675212926146713,-0.00976521111084594,0.0026365056360333483,0.002060320494388346,0.03212354982769884,-0.0005382090878815218
3.25,0.20376850776493427,-0.009973665520135455,-0.010677745763132407,0.0019451919176810563,0.03467107791869307,-0.0005313748614137401
3.26,0.2006710769597575,-0.010171513729062553,-0.021863046653081142,0.0018080343326036775,0.020067417217963714,-0.0005207304140288903
3.27,0.19873105542744796,-0.010432157306894396,0.037891531867728645,0.0017074325725122022,0.026857108533624715,-0.0005154256651699932
3.28,0.1949176523186047,-0.010597426722824821,0.017854080160972785,0.0016011753846892555,0.02853615957366566,-0.0005085303906331851
3.29,0.19262700870159577,-0.010754710828564384,0.0016849672590524278,0.0014995020297618226,0.031402895236505024,-0.0005023108585227861
3.3,0.1897333834399717,-0.01090386657409681,-0.01160085091100882,0.0014000365327407037,0.03394561181939962,-0.0004960119631542915
3.31,0.18672317861012644,-0.011044367091983531,-0.022758824540503042,0.0012801351832710094,0.019316854089548634,-0.0004856002943537074
3.32,0.18476913361098468,-0.01125523072076362,0.0369685811296705,0.0011938565045225408,0.02611114607089042,-0.00048093717667325103
3.33,0.1810565137283504,-0.01136543039237381,0.016958959614399305,0.0011023378019813885,0.027786138337700952,-0.00047451320914975435
3.34,0.1788631924526385,-0.011469809226838379,0.0008186836275569931,0.0010149994294961693,0.03064975590996025,-0.00046881459358066695
3.35,0.1760622184221461,-0.011567843003490452,-0.012440204590902226,0.0009296496181212859,0.03318834660016062,-0.00046300635951145795
3.36,0.1731418966510745,-0.011658938010583597,-0.023572330727361646,0.0008255795723193264,0.018536776322574847,-0.0004528752003290401
3.37,0.17117924977938515,-0.011825969163936634,0.036128365161758325,0.0007520798810644607,0.025335785078336684,-0.0004487753618014767
3.38,0.1675696102010349,-0.011888972419882293,0.016145105776743662,0.0006738171996558476,0.027007409979512252,-0.00044279055739672847
3.39,0.16547573626457535,-0.011948056375388205,3.216818811324629e-05,0.0005993478204774802,0.029868506260681743,-0.00043756531430006146
3.4,0.16276962722105992,-0.012002334219829436,-0.013201247224259305,0.0005266731719509794,0.0324036206903303,-0.0004322064747681248
3.41,0.15994141218556024,-0.012051175897198618,-0.02430895763794183,0.0004370789039990882,0.017731478216272113,-0.0004223940740773534
3.42,0.15797524611560476,-0.012179803476897177,0.03536556795857848,0.00037493420953940216,0.024535284817115182,-0.0004187872713688394
3.43,0.15447034419135974,-0.01220268220691878,0.015407247762055931,0.00030855024320187297,0.026204196903618235,-0.000413211360553176
3.44,0.15247761341541377,-0.012223303613723147,-0.0006798054830170486,0.0002455902920734113,0.02906333244222987,-0.0004084159667341671
3.45,0.14986816265771807,-0.01224043769454397,-0.013889157708391053,0.00018425453884069877,0.03159558390903638,-0.0004034684985775288
3.46,0.1471338649405851,-0.012253444001686375,-0.024973835026642632,0.0001078525575411248,0.016905061406635752,-0.00039400473156912493
3.47,0.14516892859806063,-0.012348606990286726,0.034675129612082856,5.575402805759602e-05,0.023713713103450464,-0.00039082820717755784
3.48,0.14177010421168035,-0.012337690016295255,0.014740371749866199,-2.635317807570236e-08,0.025380529838480798,-0.000385632767904486
3.49,0.13987980498786357,-0.012325960163650507,-0.0013222056871597943,-5.273338638801054e-05,0.028238228916001896,-0.00038122748249102965
3.5,0.13736840632549985,-0.012311864079350698,-0.014508856125416969,-0.0001039655088936148,0.03076819423260676,-0.0003766564358317797
3.51,0.13472944383696728,-0.012294772684384725,-0.025571833432991298,-0.0001683851918759027,0.01606143214055114,-0.0003675638162957892
3.52,0.1327701585518426,-0.012360949419587541,0.034052242527948806,-0.0002116365435775852,0.02287494366175146,-0.00036476169621396903
3.53,0.12947835640542138,-0.012321878877230574,0.014139716606464958,-0.00025798983217387004,0.024540245382517777,-0.00035992010942894844
3.54,0.12769139148716135,-0.012283242902810798,-0.0018997475681459264,-0.00030160127417567633,0.027396996171239807,-0.000355868732116481
3.55,0.12527906020132207,-0.012243185114613198,-0.015065009302261956,-0.00034386778100171835,0.02992521569820362,-0.00035164205324045316
3.56,0.12273647871818838,-0.01220110572575095,-0.026107570256783674,-0.00039744117147334193,0.015204299658102233,-0.0003429366554235606
3.57,0.12078694520578637,-0.01224234281949066,0.033492345110630595,-0.0004329400590776242,0.022022654572734564,-0.00034045937072160954
3.58,0.11760273704197743,-0.012180128354799535,0.013600767161392469,-0.0004709480799750611,0.023686984628268615,-0.0003359467621314737
3.59,0.11591964524271248,-0.0121194182867157,-0.0024169002887930446,-0.0005065263287839499,0.026543239507072592,-0.0003322163917802424
3.6,0.11360703907836722,-0.01205807325987962,-0.015562038431227165,-0.0005408721216772878,0.02907021735311835,-0.00032830474269081105
3.61,0.11116153272983098,-0.011995537629871933,-0.02658541777833534,-0.0005846615976086761,0.014337175592806093,-0.0003199970384568367
3.62,0.10922553881353991,-0.012015478816351788,0.03299111385857145,-0.000613404191704997,0.02116032772705287,-0.0003178007733894795
3.63,0.10614914548678911,-0.011934549402070616,0.013119245858561612,-0.0006440583942158014,0.02282419277581637,-0.0003135939448606275
3.64,0.10457012329823101,-0.01185603458964124,-0.0028778957172903574,-0.0006725754523172182,0.025680368788314187,-0.0003101547414080658
3.65,0.10235756326970602,-0.01177753189196551,-0.016004127969537763,-0.0006999567353356553,0.028206573162063805,-0.00030653131898425825
3.66,0.10000949489885613,-0.011698541602100931,-0.027009512377773603,-0.0007349520979169826,0.01346337430250903,-0.0002986269359047931
3.67,0.09809052393006112,-0.011700455875285343,0.03254445419820229,-0.0007578418321888473,0.020291249197958272,-0.00029667310444422135
3.68,0.09512183730464585,-0.011604709158063997,0.01269110345702984,-0.000782047808591788,0.021955119649648386,-0.0002927504579313453
3.69,0.09364676018197571,-0.011512144286740522,-0.003286737948471341,-0.0008043900038990237,0.02481159908988405,-0.00028957541004317994
3.7,0.09153425125862924,-0.0114201150580584,-0.016395235480359815,-0.0008256788887858262,0.02733746278799148,-0.00028621576723246027
3.71,0.08928367261074044,-0.011328187028425418,-0.02738376440269974,-0.0008527989868905572,0.012586014047012333,-0.0002787161730881562
3.72,0.0873849124838344,-0.011314996068989558,0.032148490722860856,-0.0008706523691750977,0.019418510449864493,-0.00027697092516096485
3.73,0.08452351692334048,-0.011207845087568558,0.012312509074519085,-0.0008892345177612203,0.02108282103653326,-0.00027331238163942585
3.74,0.08315196042385509,-0.011104515582616159,-0.0036472133491116665,-0.0009062073343364989,0.023939952148131292,-0.00027037708203815164
3.75,0.08113921187824502,-0.011002136677262797,-0.016739101704743575,-0.0009221965584633856,0.026465873165417354,-0.0002672589530629546
3.76,0.07898588356702874,-0.010900346083531076,-0.027711868577640075,-0.0009422913774415718,0.011708018932025973,-0.0002601620720548671
3.77,0.07711023614742629,-0.010874650797632057,0.03179955720966632,-0.0009558437460686275,0.01854501030320988,-0.0002585958302182236
3.78,0.07435542979106202,-0.010759067965437907,0.011979840177644974,-0.0009695500080977447,0.02021016076553796,-0.0002551827457034384
3.79,0.07308669021988123,-0.010647832926480305,-0.00396290078086281,-0.0009818829599934796,0.023068258540926125,-0.00025246517568048524
3.8,0.07117313572280182,-0.010537868320170674,-0.01703926087337493,-0.0009932906508980299,0.025594600788837542,-0.0002495683068343446
3.81,0.06911654684582658,-0.010428889218871973,-0.02799731420921603,-0.0010071437693947962,0.01083212154272793,-0.00024286907259825723
3.82,0.06726663789535792,-0.01039299517557879,0.03149418660086667,-0.0010170549453167573,0.017673457579692454,-0.00024145609942123638
3.83,0.06461745340580194,-0.01027155366983834,0.011689672438919274,-0.0010265615558949642,0.019339813455001898,-0.00023827117980682925
3.84,0.06345056814183181,-0.010154886087576642,-0.004237181610022844,-0.0010349130477090734,0.02219916052206882,-0.00023575150404355218
3.85,0.06163538543990654,-0.01003972590396529,-0.017299050840691166,-0.001042387478347843,0.024726254642519624,-0.00023305749129559408
3.86,0.05967477286983325,-0.009925869104421281,-0.028243395338023447,-0.0010507188085568941,0.00996086619397566,-0.0002267483415875335
3.87,0.05785296222526881,-0.009881810925094214,0.031229101242757906,-0.001057578602758817,0.016806374355690677,-0.00022546633760396663
3.88,0.0553081871457195,-0.009756723482468033,0.011438770046723334,-0.0010634948051217127,0.01847426785502863,-0.00022249355373675205
3.89,0.054241954483558175,-0.009636747702046478,-0.004473249610725816,-0.001068456932032132,0.021335115439323784,-0.00022015392622650964
3.9,0.05252408464162528,-0.009518444734624154,-0.01752162279267111,-0.0010725812199195912,0.023863259701708824,-0.0002176460605401512
3.91,0.05065845185114881,-0.009401693397137478,-0.028453220570767712,-0.001076049957382211,0.009096612728016183,-0.00021171737822515114
3.92,0.0488668439801998,-0.009351257954648418,0.031001203470992778,-0.0010803835010197605,0.01594609975546813,-0.00021054710998829023
3.93,0.04642504050522689,-0.009224412842456786,0.011224076228444346,-0.00108325618216969,0.017615830717834766,-0.00020777161412055957
3.94,0.04545803898636791,-0.009102939806382437,-0.00467412021976088,-0.0010853594303967596,0.020478399669147128,-0.00020559599569672303
3.95,0.043836205176894794,-0.008983243393601015,-0.017709950705935285,-0.001086656141871061,0.0230078609390447,-0.0002032591166971991
3.96,0.04206434068620979,-0.008865286051928933,-0.028629722361728227,-0.0010858638606767656,0.0082415407943448,-0.0001976996214301171
3.97,0.04030479531014208,-0.008810034426431912,0.03080756664886053,-0.0010881367323965897,0.015094794219527061,-0.00019662457892250865
3.98,0.03796431956359925,-0.008683029069089798,0.011042704413100068,-0.0010884549455859917,0.016766631132055558,-0.00019403262343872514
3.99,0.03709492677472781,-0.008561588771272,-0.004842639551583261,-0.0010881727615003277,0.01963111300493209,-0.0001920066111682785
4.0,0.03556765256540473,-0.008441976344641944,-0.017866840167357623,-0.0010871083895375824,0.02216212777373201,-0.0001898269695608889
4.01,0.03388814778126914,-0.008324237672496793,-0.028775665876779044,-0.001082602227622934,0.007397654550125908,-0.0001846240643024493
4.02,0.03216229075508892,-0.008265525845985167,0.030645426747355486,-0.001083225358668988,0.014254444187210056,-0.0001836301467302836
4.03,0.029921311459624178,-0.00813969782242907,0.010891929758116703,-0.0010814247049061834,0.015928625260825828,-0.00018120900583407876
4.04,0.029147722244715624,-0.008019569452955011,-0.004981492729427828,-0.0010791779074328484,0.018795183439293362,-0.00017931967433003885
4.05,0.02771334930429248,-0.007901275722588252,-0.017994936705179043,-0.001076167197779196,0.021327958904687326,-0.00017728480327404474
4.06,0.026124615950529062,-0.007784944973110441,-0.028893657288975305,-0.0010684430850095566,0.006566787723307661,-0.00017242487954019693
4.07,0.024433850143168456,-0.007723943227233576,0.030512174431507333,-0.0010677774280787985,0.013426867136335792,-0.00017150010836511768
4.08,0.02229036665912787,-0.007600399012375192,0.010769181315595233,-0.001064244274729518,0.015103601427126623,-0.00016923800323094586
4.09,0.021610610732025748,-0.007482638650913032,-0.005093211692397404,-0.0010604052913562594,0.017972372284567804,-0.00016747375776566428
4.1,0.020267316016564507,-0.007366682588383355,-0.018096733649386465,-0.001055815397339147,0.020507087472527327,-0.0001655723532440581
4.11,0.0187676028939876,-0.007252739742114045,-0.02898615152346906,-0.0010453212862528611,0.00575060898421211,-0.00016104105874489608
4.12,0.0171131191439855,-0.007190450936889192,0.03040534768850023,-0.0010436822387096959,0.01261371692626713,-0.00016017531667273478
4.13,0.015064978891032865,-0.007070092067351652,0.010672034704839461,-0.0010387577584484186,0.014293185493474775,-0.00015806134441206118
4.14,0.014476937848506566,-0.0069555584225611256,-0.005180182585107218,-0.0010336546701022685,0.017164279579272957,-0.0001564117855740916
4.15,0.013222750103736303,-0.006842767898973534,-0.01817457933483979,-0.0010278091213782685,0.019701086498803276,-0.0001546335956641659
4.16,0.011810159379344043,-0.006732007733489809,-0.029055459505045178,-0.0010149481869205956,0.0049506275749246886,-0.000150416067752134
4.17,0.010192947392795304,-0.006669284182692081,0.03032262501534433,-0.001012609762976035,0.011816489394319372,-0.00014960086230159222
4.18,0.00823786260539805,-0.006552831646189361,0.010598205255618609,-0.0010065937808579853,0.013498846486532006,-0.00014762492896382316
4.19,0.007739286238539478,-0.006442209272705668,-0.005244652481195544,-0.0010005141652262809,0.01637234973174055,-0.0001460807284900159
4.2,0.006572101987067924,-0.006333243778300357,-0.018230683913600387,-0.0009936966399860915,0.018911374554341737,-0.00014441645133044602
4.21,0.005244604786014406,-0.006226297948330739,-0.029103754872750187,-0.000978830420321126,0.004168199149281543,-0.0001404975194477604
4.22,0.003665464021196385,-0.006163857175778276,0.03026181897070046,-0.0009760291701971495,0.011036528158857748,-0.00013972576965882143
4.23,0.0018010277980096134,-0.006051873349122161,0.01054554171098232,-0.0009691838105446872,0.01272190242061563,-0.00013787852737945545
4.24,0.0013895497996685435,-0.005945694123710155,-0.005288735733799399,-0.0009623783771428374,0.015597877355525532,-0.00013643131470792086
4.25,0.000307148630973586,-0.005841065497946829,-0.018267125643234294,-0.0009548362709803575,0.01813922161191867,-0.00013487250487209486
4.26,-0.0009373999398931687,-0.005738422643730701,-0.02913308025043193,-0.0009382877265867496,0.0034045317796086265,-0.00013123686496545003
4.27,-0.0024778495344435214,-0.0056768619849378865,0.030220870330666116,-0.0009352264035720261,0.010275030585754042,-0.00013050270977198186
4.28,-0.004254147829563237,-0.005569770724633827,0.010512020294228819,-0.0009277795317448043,0.011963526277398887,-0.00012877549809249932
4.29,-0.004580994859004761,-0.005468433297295405,-0.0053144199085863875,-0.0009204655452342137,0.014842013254473091,-0.00012741775711817163
4.3,-0.005580935638072049,-0.00536852452270864,-0.01828585673102623,-0.0009124133330544905,0.017385755041742057,-0.00012595674003760673
4.31,-0.0067447820839561246,-0.005270548601998826,-0.029145353099835347,-0.0008944698058423274,0.0026606920896036727,-0.00012258910369530287
4.32,-0.00824608946015104,-0.005210358597906861,0.030197842555423904,-0.0008913207845622938,0.00953305387807885,-0.00012188773047534507
4.33,-0.00993684949879281,-0.005108463607683689,0.010495739184435138,-0.0008834692415689003,0.01122475210227213,-0.0001202725217886375
4.34,-0.010181619729543456,-0.005012251005354074,-0.005323571192761278,-0.0008758337325493624,0.014105770518478954,-0.00011899749725808596
4.35,-0.01110151105709889,-0.004917333313869676,-0.018288708867331138,-0.0008674561225837501,0.01665196571135643,-0.00011762729129185299
4.36,-0.012186989777340784,-0.004824280210868892,-0.02914237118289975,-0.0008483721807561543,0.0019376114758931067,-0.00011451251215463446
4.37,-0.013648862333681677,-0.0047658570245801,0.030190916593397787,-0.0008452806319756061,0.008811521252013206,-0.0001138400039810704
4.38,-0.015256758838511075,-0.004669358197872953,0.010494913453840127,-0.0008371932623265099,0.010506481180910889,-0.0001123293530007457
4.39,-0.01542207955118613,-0.004578453882686517,-0.005317939661964033,-0.000829396027122623,0.013390030694038154,-0.00011113096595414705
4.4,-0.016264407283195226,-0.004488702209926032,-0.018277398332600114,-0.0008208509083938161,0.015938714154612878,-0.00010984521166705657
4.41,-0.017273927439553916,-0.004400734798792882,-0.029125817677666532,-0.0008008510662704468,0.001236092383807813,-0.00010696839146993341
4.42,-0.018696220758229742,-0.00434439137109166,0.030198386102853192,-0.0007979378951683169,0.008111228164948994,-0.00010632159161044984
4.43,-0.02022399023804411,-0.004253399890075116,0.010507870094045302,-0.0007897583704215904,0.009809488262566099,-0.00010490858871981588
4.44,-0.020312548847378764,-0.004167902005747237,-0.005299164023142566,-0.0007819347632920376,0.01269554999661011,-0.00010378136037310049
4.45,-0.021079861065587124,-0.004083409006483407,-0.018253530846834565,-0.0007733559497666275,0.01524673677725915,-0.0001025742565653501
4.46,-0.022015894103333267,-0.004000610545062955,-0.02909726605437868,-0.000752637254823122,0.0005568146058095129,-9.992083298351226e-05
4.47,-0.023398601980417766,-0.0039465871282118314,0.03021865283336922,-0.0007500018109718472,0.007432848564600486,-9.929722523839634e-05
4.48,-0.02484903007804462,-0.0038611385910769513,0.010533043584004531,-0.000741851253113865,0.009134427799414866,-9.797545354380474e-05
4.49,-0.02486356189379535,-0.003781073054653916,-0.005268776286371235,-0.0007341147758818167,0.01202296553463513,-9.691443700048848e-05
4.5,-0.025558456830943044,-0.0037018614484907175,-0.018218606205877563,-0.0007256145521039057,0.01457665206948355,-9.578068302207551e-05
4.51,-0.026423524688290456,-0.00362424788846738,-0.029058184614072502,-0.0007043490341109439,-9.965842623060363e-05,-9.333650131960817e-05
4.52,-0.027766769314929718,-0.0035727212654990126,0.0302502223270551,-0.0007020716023917826,0.006776941130696402,-9.27341048368048e-05
4.53,-0.029142678967808422,-0.0034927878722612604,0.0105689714136048,-0.0006940510125784804,0.008481840174035802,-9.149760072804532e-05
4.54,-0.029085955537411223,-0.0034181197783311745,-0.0052282060636343886,-0.0006864957079483047,0.01137280151773121,-9.049831991640494e-05
4.55,-0.029711070244076154,-0.0033441536473333144,-0.018174022580197402,-0.0006781671822080672,0.013928966798422775,-8.943306379902616e-05
4.56,-0.030507734143370158,-0.0032716843456626066,-0.029009940947233304,-0.000656504161609047,-0.0007328733810578487,-8.718443411467898e-05
4.57,-0.03181175660227353,-0.0032227764634740197,0.030291699752993395,-0.0006546482440433483,0.006143955483435281,-8.660171138046276e-05
4.58,-0.03311599682032096,-0.0031482775497693183,0.010614290015809047,-0.0006468407433265392,0.007852157889655022,-8.544492838732827e-05
4.59,-0.03299081501761947,-0.00307892152662248,-0.005178784796555647,-0.0006395433991491164,0.010745475424161948,-8.45033236321238e-05
4.6,-0.03354881458861314,-0.0030101162806772663,-0.01812108076926222,-0.000631462671232925,0.013304082156171012,-8.350211557807977e-05
4.61,-0.034279664511416286,-0.0029427037162577108,-0.028953806010534322,-0.0006095309258187878,-0.0013424808239934204,-8.14358575274565e-05
4.62,-0.03554481557088707,-0.0028964893239447065,0.03034178594596426,-0.0006081453248178037,0.005534238335385732,-8.087163429649512e-05
4.63,-0.03678025088049708,-0.0028273008467749605,0.010667730725444358,-0.0006006182143400547,0.007245711700291909,-7.978941002312147e-05
4.64,-0.03658942262951825,-0.002763130257932289,-0.0051217497620825725,-0.0005936403868533336,0.010141304105123459,-7.890178968078529e-05
4.65,-0.03708299014526517,-0.002699361392188848,-0.018060988216106466,-0.000585868538184809,0.012702299841269547,-7.796054046077157e-05
4.66,-0.037750634875877154,-0.0026368797101383734,-0.028890958256866384,-0.0005637783287431534,-0.0019282290900865008,-7.606401658894167e-05
4.67,-0.03897736605473767,-0.002593393357841478,0.030399273533987525,-0.0005628990426141664,0.004948039565864558,-7.551741258699726e-05
4.68,-0.04014686665332334,-0.0025293563332695612,0.01072811592450762,-0.0005557056913952204,0.006662736660254309,-7.450493850373667e-05
4.69,-0.03989320931818696,-0.0024702112177976687,-0.005058247962708151,-0.0005490955560258961,0.009560509805690608,-7.366793611431687e-05
4.7,-0.04032503636342,-0.0024113221464006074,-0.017994862879788798,-0.0005416804705655533,0.0121238280539196,-7.278287994290897e-05
4.71,-0.04093209420741317,-0.0023536148496816622,-0.028822487578850087,-0.0005195254275318342,-0.0024899582534185505,-7.104401942524458e-05
4.72,-0.04212094912858788,-0.0023128569637265173,0.03046304325238225,-0.0005191773692472803,0.004385518199091837,-7.05143887300176e-05
4.73,-0.043227381674171284,-0.0022537847854664506,0.010794355276289025,-0.0005123589381433407,0.00610337807467289,-6.956718260490194e-05
4.74,-0.04291370907960612,-0.002199479034459273,-0.004989339901229073,-0.00050615297683424,0.00900322608448763,-6.877771904158694e-05
4.75,-0.043286486897109455,-0.002145288053867489,-0.017923737090086433,-0.0004991310014914344,0.011568787387362127,-6.794538051941603e-05
4.76,-0.04383557697273943,-0.0020921744514623697,-0.02874939903030338,-0.0004769898757367465,-0.003027594209411134,-6.635269438100787e-05
4.77,-0.04498718307655025,-0.002054117036465186,0.03053206024006272,-0.0004771884260027512,0.0038467482695195964,-6.583957446025441e-05
4.78,-0.046033402139045165,-0.0019998019418210333,0.01086544206607698,-0.0004707754367105616,0.005567697334848351,-6.49534552175366e-05
4.79,-0.04566251617710293,-0.0019501294978852002,-0.004916003302213312,-0.00046499997096794755,0.008469503616197112,-6.420870534472301e-05
4.8,-0.04597892744762078,-0.0019004356488494523,-0.017848561268962726,-0.00045839742450707433,0.011037216599897781,-6.342587007881242e-05
4.81,-0.0464726616034028,-0.0018517168243192828,-0.028672616600999845,-0.00043633570629627433,-0.003541142884946053,-6.196845908424821e-05
4.82,-0.04758772212731799,-0.001816308365931718,0.030605370495706552,-0.00043708811186956307,0.003331724559740892,-6.14715275435991e-05
4.83,-0.04857656223045126,-0.001766526995794493,0.010940449577390154,-0.00043110187000539393,0.005055677624156448,-6.0642592345262135e-05
4.84,-0.04815124515999969,-0.0017212672354105507,-0.004839136726886295,-0.0004257744489560015,0.007959315862983176,-5.993995572737536e-05
4.85,-0.048413956355020105,-0.0016758556675711134,-0.017770207492162626,-0.00041960898848345516,0.010529078253950972,-5.920364426532645e-05
4.86,-0.048854931584685346,-0.001631319417327859,-0.028592986938136278,-0.00039768039934360053,-0.004030684589218932,-5.7871200519900904e-05
4.87,-0.04993421796939401,-0.001598489216547705,0.030682097351686366,-0.0003989870273599335,0.0028403681982571193,-5.739023868569548e-05
4.88,-0.05086848623214735,-0.00155300760695809,0.011018527592554506,-0.0003934409086795644,0.0045672294821193045,-5.661484204144695e-05
4.89,-0.05039149351127037,-0.0015119300300625582,-0.004759563125844579,-0.00038857156141077116,0.007472564602730348,-5.595191727703594e-05
4.9,-0.05060314782312503,-0.00147057633625991,-0.01768947318403491,-0.00038285341552193495,0.010044264210397025,-5.5259362015509584e-05
4.91,-0.050993939373356056,-0.0014300016637491808,-0.028511282801346738,-0.00036110127830779257,-0.004496368516470785,-5.4042165216323724e-05
4.92,-0.05203828384203746,-0.001399663762668979,0.03076143799241038,-0.00036295673711956694,0.0023725321061400144,-5.357702774961889e-05
4.93,-0.05292075328178214,-0.0013582413593837828,0.01109889885775317,-0.00035785734588336817,0.004102196215975643,-5.285176247233853e-05
4.94,-0.052394807008582234,-0.0013211096039356107,-0.004678033382887747,-0.0003534497072360703,0.007009085303718091,-5.2226324759940936e-05
4.95,-0.05255801781345326,-0.0012835838525404597,-0.01760708453701909,-0.0003481827847987143,0.009582600968053752,-5.1574949513240594e-05
4.96,-0.05290117274903139,-0.0012467446275366,-0.028428206748642992,-0.0003266412776421958,-0.004938407410082571,-5.046385869351189e-05
4.97,-0.05391146137512237,-0.0012188010956037942,0.030842660070362626,-0.0003290354143322427,0.0019280062832620522,-5.001444850007243e-05
4.98,-0.05474486471257478,-0.001181194448918177,0.011180855654657762,-0.0003243836226764441,0.0036603591507039356,-4.933612833549837e-05
4.99,-0.05417264755003259,-0.0011477697015038757,-0.00459522972562354,-0.0003204359414717705,0.006568652336935631,-4.8746109909612895e-05
5.0,-0.05428999253709321,-0.001113839669386607,-0.01752370009988624,-0.0003156188248501775,0.009143854839817476,-4.813351184912337e-05
5.01,-0.054588023798984864,-0.0010805077899078697,-0.028344394502610726,-0.00029431412495583984,-0.005357072395964646,-4.7119953370901295e-05
5.02,-0.055565189809314575,-0.001054851832549275,0.03092509828661605,-0.0002972329093137483,0.0015065229263020938,-4.6686201137830275e-05
5.03,-0.05635221388189393,-0.0010208175638126704,0.011263756407586811,-0.00029302478627484007,0.003241442709967151,-4.6051844909678344e-05
5.04,-0.0557363636488617,-0.0009908613485265505,-0.004511769216009043,-0.00028953082471146934,0.006150984018749904,-4.5495318016089534e-05
5.05,-0.055810379251397535,-0.0009602953632281697,-0.01743991408176271,-0.0002851576559934662,0.00872773695839434,-4.4919251715806776e-05
5.06,-0.05606576040761979,-0.0009302434733626797,-0.02826041848535965,-0.00026410897941422283,-0.005752687991752464,-4.399520418515724e-05
5.07,-0.05701077783193398,-0.0009067619366476265,0.031008151024636277,-0.0002675352837403394,0.0011077613721457236,-4.3577051937406286e-05
5.08,-0.05775405846009107,-0.0008760591718726118,0.01134702233507312,-0.00026376292231362084,0.002845119321825439,-4.2983869061637106e-05
5.09,-0.05709716312196633,-0.0008493359437977688,-0.00442820707213798,-0.00026071275497430195,0.005755747477986555,-4.245903117095695e-05
5.1,-0.05713033971233017,-0.0008219051039759506,-0.01735625986931666,-0.00025677402347918125,0.008333908105922687,-4.191739451806198e-05
5.11,-0.05734549997526983,-0.0007949088853820285,-0.028176791113665445,-0.0002359945670827264,-0.006125627296982726,-4.107537122193707e-05
5.12,-0.058259377659908296,-0.0007734843876505693,0.03109127708178505,-0.0002399088507377248,0.0007313528616085842,-4.0672759351155454e-05
5.13,-0.058961495099651984,-0.0007458769957224831,0.011430134092549338,-0.00023656110104089217,0.0024710141443779797,-4.011813658511774e-05
5.14,-0.058266088363012614,-0.000722155970578342,-0.004345040016673352,-0.00023394182161121633,0.005382563342786157,-3.9623297571965905e-05
5.15,-0.05826086570515088,-0.0006976361532906594,-0.01727321324196396,-0.0002304250606256056,0.007961983363049291,-3.911411932390943e-05
5.16,-0.058438185615017346,-0.0006734760837900922,-0.028093968253983803,-0.00020992285246376725,-0.006476307368199447,-3.834714871919306e-05
5.17,-0.05932196148528135,-0.0006539890584633667,0.031173992418587204,-0.00021430375961417885,0.0003768851196279885,-3.796000599297253e-05
5.18,-0.059985436378084955,-0.0006292471788071907,0.011512628512733158,-0.00021136687588255393,0.0021187096076631957,-3.744149529737254e-05
5.19,-0.05925399367612272,-0.0006083040382520721,-0.004262709563107592,-0.0002091632193189468,0.0050310102437441185,-3.6975066339188995e-05
5.2,-0.05921275697318151,-0.000586477391095741,-0.017191195764709732,-0.00020605361965726743,0.007611536574161434,-3.649649513026097e-05
5.21,-0.059354564427849255,-0.0005649402901042322,-0.028012352393247397,-0.00018583228388569504,-0.006805184781831298,-3.5798099852513795e-05
5.22,-0.06020930019445814,-0.0005472704778242132,0.03125586685470694,-0.00019065716241600214,4.390674916231272e-05,-3.5426335963948206e-05
5.23,-0.0608365898902008,-0.0005251720303078855,0.011594095399303228,-0.00018811537119008454,0.0017877497692470328,-3.494164336660359e-05
5.24,-0.060071524838889445,-0.0005067901298616562,-0.004181605257613796,-0.00018631025869034377,0.004700629130929623,-3.450212734153681e-05
5.25,-0.05999660126931872,-0.0004874463321868916,-0.01711057794118176,-0.00018359120629415,0.0072821046265427024,-3.405242196188629e-05
5.26,-0.06010516803378607,-0.0004683265331095754,-0.02793229593400781,-0.0001636506486739135,-0.007112751386635946,-3.3416596763715206e-05
5.27,-0.060931944050324205,-0.00045235438506097125,0.031336520960323355,-0.00016889599775426125,-0.000268068562936645,-3.3060097029435544e-05
5.28,-0.06152543948978462,-0.00043268602922807986,0.011674174338338617,-0.00016673199423551297,0.0014776444819256222,-3.260707239079971e-05
5.29,-0.06072910086807326,-0.0004166574107955512,-0.004102067832079115,-0.00016530700796404363,0.004390927403356255,-3.219305557727931e-05
5.3,-0.06062275641482984,-0.00039959465070182887,-0.017031682428836348,-0.00016296055237032434,0.006973191542175619,-3.177057636615844e-05
5.31,-0.060700295021476336,-0.0003826948891116899,-0.027854104374114286,-0.00014329757221987906,-0.007399530246577074,-3.119176534268615e-05
5.32,-0.06150020558592928,-0.00036830272165389033,0.03141562296526956,-0.00014893942553590215,-0.0005595580288875347,-3.08503872019549e-05
5.33,-0.06206222858295973,-0.0003508606383206825,0.011752551536403644,-0.00014713480469400128,0.001187873372878866,-3.0427014792283774e-05
5.34,-0.061236897614946884,-0.0003369867940250515,-0.004024392321611003,-0.00014607059880947265,0.004101382850371929,-3.0037159694843057e-05
5.35,-0.06110133438319565,-0.00032201244337670687,-0.016954787138701022,-0.00014407785891673493,0.0066842723818038696,-2.964036090712782e-05
5.36,-0.061149995493892106,-0.0003071445320301791,-0.02777803936204748,-0.00012468669318987973,-0.007666071774155686,-2.9113434318214708e-05
5.37,-0.06192414436334559,-0.00029421745040281166,0.03149288559711749,-0.0001307009443643582,-0.0008311059317638661,-2.8787005326703844e-05
5.38,-0.06245694526008094,-0.0002788078568016772,0.011828956862913742,-0.00012923657298080844,0.0009178896344240121,-2.839139513416269e-05
5.39,-0.061604833367923106,-0.0002669002974187151,-0.003948831137634556,-0.00012851322710525961,0.0038314474052344614,-2.8024434279857245e-05
5.4,-0.06144218727577311,-0.00025383144475199515,-0.0168801282818265,-0.00012685474026942096,0.006414796961645047,-2.76518573008715e-05
5.41,-0.0614640573903813,-0.0002408167176781717,-0.027704321734489668,-0.00010772754520843572,-0.007912950053440554,-2.7172088256577034e-05
5.42,-0.06221355364210979,-0.00022924330878026922,0.03156806317683447,-0.00011409022147985145,-0.0010832799853090205,-2.6860405305700647e-05
5.43,-0.06271930934609315,-0.00021568297370322398,0.011903160794801693,-0.00011294655691685736,0.000667123627275712,-2.6490785003269838e-05
5.44,-0.0618425562581848,-0.00020556342406052863,-0.003875597034408429,-0.00011254387778023463,0.003580550711884261,-2.6145515571484907e-05
5.45,-0.06165489512710565,-0.00019422715880068608,-0.0168079032913937,-0.00011119989787511022,0.006164193383870241,-2.579578286970843e-05
5.46,-0.06165199460284043,-0.0001828968976269607,-0.02763313452724958,-9.232717344887543e-05,-0.008140759351351116,-2.5358824106203055e-05
5.47,-0.06237794876184921,-0.00017256979845114984,0.031640948687794435,-9.901466321832584e-05,-0.0013166678803227258,-2.506165363315357e-05
5.48,-0.06285876119171974,-0.0001606861133041093,0.011974971512174193,-9.817202430841453e-05,0.000434986297877914,-2.471636114000679e-05
5.49,-0.06195943341502641,-0.00015218679649819933,-0.003804865968959348,-9.806980090585917e-05,0.003348103506567489,-2.439164030502473e-05
5.5,-0.06174875533559998,-0.00014242036883160836,-0.016738273780347868,-9.702055059227684e-05,0.005931871382609798,-2.406345002553464e-05
5.51,-0.06172303685936242,-0.00013261583831081225,-0.027564625755260863,-7.839151266914516e-05,-0.008350110815133796,-2.366531096355018e-05
5.52,-0.0624265572479743,-0.0001234322155596601,0.03171137090696163,-8.538075208923894e-05,-0.001531874015541129,-2.3382389947915362e-05
5.53,-0.0628844521255445,-0.00011306331870741815,0.01204423209166805,-8.481954715844742e-05,0.00022087241197345318,-2.3059866528207963e-05
5.54,-0.06196454173768018,-0.00010602693834016463,-0.003736779969898407,-8.499776436581214e-05,0.003133500816554536,-2.2754607408953443e-05
5.55,-0.06173277383503262,-9.767786579573112e-05,-0.01667136825922455,-8.422364643346624e-05,0.005717225487809781,-2.2446728522427136e-05
5.56,-0.06168612110002414,-8.925026051542773e-05,-0.027498911219225874,-6.582655137287211e-05,-0.00854162935341983,-2.2083752768594344e-05
5.57,-0.062368310587146425,-8.111220139994657e-05,0.03177919165153753,-7.309517473413264e-05,-0.001729516410400033,-2.181479033940514e-05
5.58,-0.06280523647816949,-7.210685382119664e-05,0.012110817779742433,-7.279609139622197e-05,2.4163607100376704e-05,-2.1513574187656537e-05
5.59,-0.061866660221454595,-6.638657623625477e-05,-0.003671449810838112,-7.323510661550641e-05,0.0029361249787125863,-2.1226742312743347e-05
5.6,-0.06161565774043254,-5.931237723189042e-05,-0.016607284916148046,-7.27168788908856e-05,0.005519638009774249,-2.093801024565641e-05
5.61,-0.061549884486922224,-5.212296372292258e-05,-0.027436077223441657,-5.4539304965245305e-05,-0.008715950697763108,-2.0606853668810492e-05
5.62,-0.06221183734389513,-4.4937600307548564e-05,0.031844303141070895,-6.20657632330219e-05,-0.0019102237965870428,-2.0351533170881372e-05
5.63,-0.06262966509851253,-3.715500795919979e-05,0.01217463331926183,-6.200992423222364e-05,-0.00015576873281654348,-2.0070253439107827e-05
5.64,-0.06167426385594865,-3.261423131561969e-05,-0.0036089576749276375,-6.269061127467425e-05,0.002755348481154292,-1.9800863647412538e-05
5.65,-0.06140580939728579,-2.6682496212515616e-05,-0.016546094121494548,-6.240952923316928e-05,0.005338481847678769,-1.9530176328686574e-05
5.66,-0.0613226587908855,-2.0602151096227317e-05,-0.02737618314263557,-4.443861901865258e-05,-0.00887371864112782,-1.922778581795475e-05
5.67,-0.061965457902601884,-1.428189122520962e-05,0.031906625395095034,-5.2202270495297804e-05,-0.0020746328848597053,-1.898576720876543e-05
5.68,-0.062365980308953795,-7.591509643134486e-06,0.012235610409305764,-5.237135952954913e-05,-0.00031956077720667465,-1.8723138435509485e-05
5.69,-0.06139551873118876,-4.103597461835307e-06,-0.0035493596683977557,-5.327522359608754e-05,0.0025905366315836812,-1.8470252143518695e-05
5.7,-0.06111132197617053,8.0840223404266e-07,-0.016487841030254913,-5.321315447628697e-05,0.005173123125730306,-1.8216566411512084e-05
5.71,-0.061012466110454966,5.899245536511444e-06,-0.02731926385557415,-3.543582207926129e-05,-0.009015582449437117,-1.7940159400625455e-05
5.72,-0.061637180399642943,1.1436771529815815e-05,0.031966103772873566,-4.3416998804771196e-05,-0.0022233858032617614,-1.771108186906659e-05
5.73,-0.06202211214834108,1.71555214478758e-05,0.012293705253796361,-4.379335992918562e-05,-0.00046785371900302623,-1.7465898775148066e-05
5.74,-0.06103827861814182,1.9707506737631775e-05,-0.0034926882008790017,-4.490262721887672e-05,0.002441050056302433,-1.722862155183947e-05
5.75,-0.06073997615096971,2.3713138119774158e-05,-0.016432547962352828,-4.50421391114888e-05,0.00502292366098099,-1.699094987326279e-05
5.76,-0.06062701594977682,2.7924844658855363e-05,-0.027265332196435565,-2.7445245829925175e-05,-0.00914219444194831,-1.6737994695773183e-05
5.77,-0.06123469797003622,3.275669513413959e-05,0.0320227066286094,-3.562529899730107e-05,-0.0023571277025288082,-1.6521479411558598e-05
5.78,-0.06160567584956311,3.761490674492052e-05,0.012348896216707317,-3.619201289476806e-05,-0.0006012914109559458,-1.6292612031431323e-05
5.79,-0.06061008271274204,3.933859460403255e-05,-0.003438954401246974,-3.7489698058029654e-05,0.0023062470341508145,-1.6070091430213258e-05
5.8,-0.0602992380827061,4.254216534604893e-05,-0.01638021662309086,-3.781412713474773e-05,0.0048872432671049435,-1.5847498889229975e-05
5.81,-0.06017370338895489,4.597623615154589e-05,-0.0272143811486103,-2.0384628892224182e-05,-0.009254207735972509,-1.561569601191934e-05
5.82,-0.060765387219774425,5.0174318033668897e-05,0.03207642298441726,-2.874595623607613e-05,-0.00247650452422315,-1.5411348930329795e-05
5.83,-0.06112397054280905,5.427386540191037e-05,0.01240118160161785,-2.948689634499924e-05,-0.0007205181636189828,-1.519773805138848e-05
5.84,-0.06011815445461366,5.526796797994393e-05,-0.003388150240368759,-3.095685070199562e-05,0.0021854856698965224,-1.4989161656077803e-05
5.85,-0.05979625858465454,5.776511713406762e-05,-0.016330830368005422,-3.1450349459588375e-05,0.004765441898685852,-1.4780763177794641e-05
5.86,-0.059659608382389706,6.0514668831501695e-05,-0.027166386065147208,-1.417541909830506e-05,-0.009352274151206789,-1.4568027344457113e-05
5.87,-0.060236307728445126,6.414573761048814e-05,0.032127260460868,-2.2701476919015908e-05,-0.0025821609269080364,-1.4375442004541113e-05
5.88,-0.060583978935824234,6.75798084159851e-05,0.012450577493439141,-2.360134812726139e-05,-0.000826176700288577,-1.4176094890042253e-05
5.89,-0.05956940154483448,6.793454687681333e-05,-0.003340250671612921,-2.5228291295985237e-05,0.002078125911809934,-1.3980688538483014e-05
5.9,-0.059237873184514456,6.9812724490248e-05,-0.01628435623679536,-2.5875860417459884e-05,0.004656881640767307,-1.3785646316318304e-05
5.91,-0.0590914961406952,7.196275575438449e-05,-0.0271213066405096,-8.742987690538615e-06,-0.009437042268763301,-1.3590089620865278e-05
5.92,-0.059654202599901396,7.508859312110872e-05,0.032175243127596787,-1.7418289900745338e-05,-0.0026747383654743325,-1.340884988743483e-05
5.93,-0.0599923681132708,7.794213274792128e-05,0.01249711580442181,-1.846265225591612e-05,-0.0009189062639972769,-1.3222836261162887e-05
5.94,-0.0589704168341143,7.773969912250323e-05,-0.0032952155937238103,-2.0232189572485804e-05,0.001983531418333889,-1.303986241599445e-05
5.95,-0.058630603323450714,7.90785215087908e-05,-0.016240746916196258,-2.1019695753693922e-05,0.00456092854859756,-1.285738351683319e-05
5.96,-0.05847581843632099,8.070646373425916e-05,-0.027079088917858485,-4.016767625574318e-06,-0.009509155639826721,-1.2677299413380688e-05
5.97,-0.05902549996328332,8.338407297969752e-05,0.03222040970918272,-1.2826873951429416e-05,-0.0027548733185961917,-1.250698212333197e-05
5.98,-0.059355491188739506,8.573421084179245e-05,0.012540842257990903,-1.4002153589226046e-05,-0.0009993408715220718,-1.233343039683092e-05
5.99,-0.05832748017908784,8.504919435381453e-05,-0.0032529917248780293,-1.590078146338871e-05,0.0019010712788890313,-1.2162186637783665e-05
6.0,-0.057980658336731494,8.59209237091818e-05,-0.016199942587391547,-1.6814963312595567e-05,0.004476954342614787,-1.1991520762866868e-05
6.01,-0.057818715779589525,8.709704957254871e-05,-0.027039666994355116,6.967304689187593e-08,-0.009569251138752214,-1.1825369010739894e-05
6.02,-0.058356315353336186,8.937877993275833e-05,0.03226281159562916,-8.861822185834432e-06,-0.0028231956591672778,-1.1665546493370743e-05
6.03,-0.05867938983605825,9.129532685392405e-05,0.0125818147544976,-1.0155311454355741e-05,-0.0010681077092540973,-1.150364021839579e-05
6.04,-0.057646561186786016,9.019521129971508e-05,-0.003213514405686624,-1.2170412575643971e-05,0.0018301215939755607,-1.1343457834982406e-05
6.05,-0.057293938287017454,9.066523531942039e-05,-0.01616187261355151,-1.3198876476203945e-05,0.004404337963838396,-1.1183895217785514e-05
6.06,-0.05712602044738446,9.145301405055761e-05,-0.027002964833044985,3.578612876429823e-06,-0.009617957455312026,-1.1030287751235128e-05
6.07,-0.057652454881207404,9.338688045090748e-05,0.032302511305815074,-5.461853100296723e-06,-0.0028803271624733423,-1.0880530199863064e-05
6.08,-0.057969797655488264,9.493275499039555e-05,0.012620101541571671,-6.861701644375673e-06,-0.0011258256656818944,-1.072950473064308e-05
6.09,-0.05693332260747752,9.347838059170499e-05,-0.003176709171270886,-8.981531749249904e-06,0.0017700669198038304,-1.057974739776352e-05
6.1,-0.056576037641420385,9.360558550497444e-05,-0.01612645722737227,-1.0112739367663122e-05,0.004342466994905036,-1.0430616823126894e-05
6.11,-0.05640326021350006,9.406223355767906e-05,-0.02696889776387934,6.568204962901944e-06,-0.009655893720758996,-1.0288304528608673e-05
6.12,-0.056919419186840514,9.56920409578288e-05,0.03233958074666532,-2.5697768316510777e-06,-0.0029268801468129244,-1.0148182207427931e-05
6.13,-0.05723214417052702,9.692378455383732e-05,0.012655779757508867,-4.064975209035784e-06,-0.0011731039952069134,-1.0007321558764907e-05
6.14,-0.056193124589043464,9.516975651990833e-05,-0.0031424933411017264,-6.278642925673422e-06,0.0017203015827376043,-9.86738408105435e-06
6.15,-0.055832249552523194,9.500700670628248e-05,-0.01609360896104306,-7.501891861841961e-06,0.004290738952018541,-9.728051012253358e-06
6.16,-0.05565566279841505,9.518391408391835e-05,-0.026937373993618507,9.092543310583836e-06,-0.009683668262318182,-9.595911390581177e-06
6.17,-0.05616240798644867,9.65494706406389e-05,0.03237409980982875,-1.3242431158036282e-07,-0.0029634562412299047,-9.464996666225946e-06
6.18,-0.056471559597426335,9.75177094630908e-05,0.012688933921367607,-1.7127815310335202e-06,-0.0012105411079558327,-9.333630554948594e-06
6.19,-0.05543102946425904,9.551287760700689e-05,-0.0031107774223215756,-4.010222642702391e-06,0.0016802308688636327,-9.202937668294758e-06
6.2,-0.05506757077888835,9.510747744911896e-05,-0.01606323409397703,-5.315621543791633e-06,0.004248562453128796,-9.072802470975788e-06
6.21,-0.054888160931909624,9.5050491921711e-05,-0.026908295964744866,1.120176061971285e-05,-0.009701877480707976,-8.949828156980017e-06
6.22,-0.055386325312767326,9.618796426025256e-05,0.032406154968356304,1.8994538844543893e-06,-0.00299064527500541,-8.827697348885605e-06
6.23,-0.05569288011209039,9.693780000930019e-05,0.012719654600701347,2.4333767487795763e-07,-0.001238723480252495,-8.705198407193651e-06
6.24,-0.05465180718644547,9.472566731005827e-05,-0.003081466433130231,-2.1286096323487692e-06,0.0016492720940163796,-8.58320362833042e-06
6.25,-0.05428670721840945,9.411973422857045e-05,-0.016035233896261047,-3.5070489336393345e-06,0.004215358267652623,-8.461699881870856e-06
6.26,-0.05410539797523484,9.386974753056165e-05,-0.026881561607794424,1.2942151359582802e-05,-0.009711104845303357,-8.346987990632907e-06
6.27,-0.05459578526156861,9.48117495624956e-05,0.03243583800660588,3.5713129858541887e-06,-0.0030090242835729645,-8.233223038265207e-06
6.28,-0.05490065373869868,9.538318579416227e-05,0.01274803715922701,1.8480775843708767e-06,-0.0012582246804242808,-8.119004188636637e-06
6.29,-0.0538599412180929,9.30023702494509e-05,-0.0030544610929439386,-5.898722296465807e-07,0.0016268555595602302,-8.005188705422069e-06
6.3,-0.053494079965688,9.223327879226417e-05,-0.016009505863223694,-2.0329915417852067e-06,0.0041905602530257925,-7.891781594065073e-06
6.31,-0.05331173402289835,9.182649307604152e-05,-0.026857065495988763,1.4356314709947837e-05,-0.009711920001577121,-7.784523859961398e-06
6.32,-0.05379511822667382,9.260240574349154e-05,0.03246324483896501,4.924958498801685e-06,-0.0030191566255444767,-7.678713808076925e-06
6.33,-0.05409914663800919,9.303084524958649e-05,0.012774180637720178,3.1425175685908154e-06,-0.0012696045046467653,-7.572225790138035e-06
6.34,-0.05305963503232647,9.051539962001698e-05,-0.0030296589681455544,6.463414025913477e-07,0.001612425399207801,-7.466097387045217e-06
6.35,-0.05269383174244524,8.9616136733639e-05,-0.015985944719076883,-8.538116264547502e-07,0.004173616183346446,-7.360282164123533e-06
6.36,-0.05251125246630295,8.908452642231168e-05,-0.02683469988440379,1.548331264071042e-05,-0.009704877985477353,-7.259755836952942e-06
6.37,-0.05298837764122766,8.97206575700693e-05,0.0324884744440368,5.9987050907568285e-06,-0.003021591205556366,-7.161498142600719e-06
6.38,-0.053292349866396194,9.003718659528204e-05,0.01279818669708277,4.164282097143219e-06,-0.0012734082175551058,-7.062227183239426e-06
6.39,-0.052254818854180485,8.741709578430346e-05,-0.00300695545796259,1.6169658683320918e-06,0.0016054403221212063,-6.963319197642739e-06
6.4,-0.05188983385195911,8.641658055807966e-05,-0.015964443464966394,6.674810030571571e-08,0.004163988475341482,-6.8646197175832344e-06
6.41,-0.051707766965947144,8.5788247616847e-05,-0.026814355669202428,1.635883901034107e-05,-0.009690518539489932,-6.7701791785034345e-06
6.42,-0.05217934695878057,8.630811620946588e-05,0.032511627914288965,6.827545881245392e-06,-0.003016861797734272,-6.67908084559538e-06
6.43,-0.05248398658785902,8.6539948540576e-05,0.012820158667992132,4.9477113432142555e-06,-0.001270165892439813,-6.586546464202339e-06
6.44,-0.051449156872607205,8.384134275729593e-05,-0.0029862446915274177,2.355690168592076e-06,0.001605374257454346,-6.4944167703417605e-06
6.45,-0.051085693355545914,8.276495933046135e-05,-0.015944894258268505,7.617371422860277e-07,0.004161154816787259,-6.402384083759822e-06
6.46,-0.05090482876113356,8.20643464294335e-05,-0.026795923249167686,1.701539612831036e-05,-0.009669365525162652,-6.31345314312743e-06
6.47,-0.05137154716727821,8.248889571405016e-05,0.03253280753234833,7.443328679368254e-06,-0.0030054864646070663,-6.2291316919048955e-06
6.48,-0.051677519392612226,8.265969242415849e-05,0.012840200707131544,5.524038133699809e-06,-0.0012603918458837847,-6.142884633143335e-06
6.49,-0.05064605477222983,7.990530903612125e-05,-0.0029674203894103357,2.893135106001115e-06,0.001611716905456101,-6.057114651472841e-06
6.5,-0.050284760710894716,7.877501317921087e-05,-0.01592718913201452,1.2611751007160467e-06,0.004164608702486955,-5.971325659567784e-06
6.51,-0.050105734255012635,7.802343660046063e-05,-0.026779293307299668,1.7482475724924073e-05,-0.009641926426980283,-5.887390498242377e-06
6.52,-0.05056824440075047,7.837117621534162e-05,0.03255211600716734,7.874936201877918e-06,-0.0029879670664076045,-5.809474778153281e-06
6.53,-0.05087615817522817,7.850134764453287e-05,0.01285841706888391,5.921568368803092e-06,-0.0012445841617962508,-5.729095065308439e-06
6.54,-0.04984866746937655,7.571083315838223e-05,-0.00295037658304409,3.2570336783171824e-06,0.0016239742001448996,-5.649288795549914e-06
6.55,-0.049490137508101384,7.454563188957763e-05,-0.015911220820896688,1.5922320687868706e-06,0.004173859882786531,-5.569344960613594e-06
6.56,-0.04931353287496165,7.376140587211921e-05,-0.026764357450304033,1.7786741729854388e-05,-0.00960869194254891,-5.489947676410866e-06
6.57,-0.049772457959562644,7.404869606375541e-05,0.03256965577236315,8.148467749033449e-06,-0.0029647888557705684,-5.418078531816972e-06
6.58,-0.0500828680216614,7.415575709046607e-05,0.012874911341498319,6.165862470615382e-06,-0.0012232242998868503,-5.343173634039317e-06
6.59,-0.04905990715897701,7.134593360547115e-05,-0.0029350082542123346,3.472412098746762e-06,0.0016416686884914771,-5.26895671108175e-06
6.6,-0.048704684534328635,7.016204506271606e-05,-0.015896883294175268,1.7794092550954111e-06,0.004188434729541547,-5.194482820225425e-06
6.61,-0.048531035146126555,6.936092589171494e-05,-0.026751008865844028,1.7952212664816513e-05,-0.009570135654168352,-5.1192155416749146e-06
6.62,-0.048986968392839,6.960204856909513e-05,0.03258552834672912,8.287420213910488e-06,-0.002936420152953167,-5.053046340278193e-06
6.63,-0.04930037740713544,6.970093835434454e-05,0.012889785931946562,6.279915807167389e-06,-0.001196776783725672,-4.983249447579501e-06
6.64,-0.04828245145027665,6.688608777949412e-05,-0.002921211930129175,3.561769459414266e-06,0.001664339830927037,-4.91426821949999e-06
6.65,-0.04793103001610177,6.569734978256747e-05,-0.01588407235075806,1.8447179220029478e-06,0.004207876524327655,-4.844911199350426e-06
6.66,-0.04776082090707234,6.489264237075076e-05,-0.02673914281103862,1.8000441819726353e-05,-0.009526713776945974,-4.773410729520451e-06
6.67,-0.04821432586510355,6.510004979531914e-05,0.03259983375691888,8.312866652951024e-06,-0.002903312096786766,-4.712607763790341e-06
6.68,-0.04853118652725641,6.520338047266705e-05,0.012903141497488946,6.284336385647899e-06,-0.0011656889636287046,-4.6475761639129366e-06
6.69,-0.047518751751240984,6.239552874376386e-05,-0.002908886171937297,3.5452543947787372e-06,0.0016915442279101238,-4.583496791947046e-06
6.7,-0.047171577897131556,6.121354090282694e-05,-0.01587268608105319,1.8078550551820066e-06,0.0042317456735951,-4.518924572183247e-06
6.71,-0.04700524767642378,6.0416454061851255e-05,-0.026728657074315265,1.7950693701115003e-05,-0.0094788649787585,-4.450867526330601e-06
6.72,-0.04745685856732962,6.060099977389655e-05,0.03261267012888425,8.243630961769574e-06,-0.002865898466707738,-4.395110298281312e-06
6.73,-0.04777757571794439,6.071919855799024e-05,0.012915076483821508,6.197518415652275e-06,-0.0011303908497444482,-4.334523849929166e-06
6.74,-0.046771041688487,5.7928364327608506e-05,-0.002897932018797178,3.4408373993684343e-06,0.0017228557771488697,-4.275031430383497e-06
6.75,-0.04642851635594525,5.676279002386764e-05,-0.015862625284412957,1.686374475427359e-06,0.004259619855340609,-4.214931854326283e-06
6.76,-0.04626645909944216,5.598261410000305e-05,-0.02671945236620843,1.782011553149972e-05,-0.009427010267463662,-4.150030256234359e-06
6.77,-0.04671668124345274,5.615362397293211e-05,0.03262413319937707,8.096457478748824e-06,-0.002824595571318184,-4.099011655876899e-06
6.78,-0.04704161399082807,5.629528843087428e-05,0.012925686760922872,6.0358106139932445e-06,-0.0010912950108218618,-4.042571353078885e-06
6.79,-0.04604134563379603,5.3529696231180424e-05,-0.002888253316513101,3.264477720594954e-06,0.0017578657659604563,-3.9873690613032035e-06
6.8,-0.04570382630575409,5.238847577970773e-05,-0.015853793797759863,1.495852358194385e-06,0.004291094101747864,-3.93144884194229e-06
6.81,-0.04554639353671064,5.163279581665847e-05,-0.026711432665749157,1.7623902825216643e-05,-0.009371552940889014,-3.869446145126665e-06
6.82,-0.04599570374352879,5.179822792911182e-05,0.03263431603173217,7.88617458282486e-06,-0.0027798021990552476,-3.822872532756978e-06
6.83,-0.04632516761304828,5.1970321379712914e-05,0.012935065276664659,5.813678362317967e-06,-0.0010487965342657326,-3.7702991553928265e-06
6.84,-0.04533148727503544,4.923656149458111e-05,-0.002879757081686307,3.030283978947008e-06,0.0017961829031359336,-3.719107412108695e-06
6.85,-0.044999289920966135,4.8126072016430044e-05,-0.015846098815330834,1.2500463564418402e-06,0.004325780822131359,-3.6670911320437993e-06
6.86,-0.04484679251959278,4.740105197242883e-05,-0.0267045054336279,1.7375458288936472e-05,-0.009312878595273303,-3.60775863344002e-06
6.87,-0.04529563972788253,4.7567603189691e-05,0.03264330867835952,7.625851567084984e-06,-0.0027318996266780717,-3.5653498355664694e-06
6.88,-0.045629908687061516,4.7775650102721556e-05,0.012943301790357964,5.543859036725364e-06,-0.0010032730432238872,-3.516382681328808e-06
6.89,-0.044643098169316886,4.5078962784828036e-05,-0.0028723537059960336,2.750667872065973e-06,0.0018374332945331623,-3.4689383416800353e-06
6.9,-0.04431649928804404,4.400419584271731e-05,-0.015839451075194688,9.610477186843146e-07,0.004363309770383546,-3.4205674956647416e-06
6.91,-0.0441692093833268,4.3314631881230525e-05,-0.02669858185200269,1.7086543487598437e-05,-0.009251355187948911,-3.363701110785549e-06
6.92,-0.04461801513144792,4.348795101805081e-05,0.03265119793205429,7.326948258854182e-06,-0.0026812516814172646,-3.3251903392459036e-06
6.93,-0.044957323765970614,4.37361791227886e-05,0.012950482677354103,5.237510013365796e-06,-0.0009550847665723754,-3.2795860325668718e-06
6.94,-0.0439776263672087,4.108054341145362e-05,-0.0028659571782441162,2.436490496728412e-06,0.0018812603664976524,-3.2356415981581096e-06
6.95,-0.04365686485208187,4.0045335936156334e-05,-0.01583376506353318,6.394259665647187e-07,0.0044033279609891245,-3.1906736769526038e-06
6.96,-0.04351501777577482,3.9394887352273145e-05,-0.026693577019898385,1.6767422880478272e-05,-0.009187333150197052,-3.136091047226332e-06
6.97,-0.04396417688568022,3.9579646227139165e-05,0.03265806721053366,6.9994570142702355e-06,-0.0026282048527520308,-3.101224750465839e-06
6.98,-0.04430872235339223,3.987116414805314e-05,0.012956690689236439,4.904349005813859e-06,-0.0009045746578049678,-3.0587561241571906e-06
6.99,-0.043336344885958056,3.725945774135653e-05,-0.0028604851998181857,2.0972009728616957e-06,0.001927324741077138,-3.0180789785286436e-06
7.0,-0.0430216239877268,3.626665190381573e-05,-0.01582895914786775,2.943658434386684e-07,0.00444549953754414,-2.976286592821501e-06
7.01,-0.042885420130645,3.5657947705658444e-05,-0.026689410015379167,1.6426999978845688e-05,-0.009121145546360105,-2.923824497224443e-06
7.02,-0.0433353013384874,3.585794772220652e-05,0.032663996307746856,6.65203686008067e-06,-0.002573088449942089,-2.892362152382079e-06
7.03,-0.04368524546549679,3.619490485107235e-05,0.012962004944938599,4.552786531701575e-06,-0.0008520685589728273,-2.8528171978958416e-06
7.04,-0.042720360191594864,3.362913503224263e-05,-0.002855859371209135,1.7409671888224333e-06,0.001975304066849615,-2.81518886564532e-06
7.05,-0.04241184945463772,3.268061377070808e-05,-0.01582495568364095,-6.620362459687502e-08,0.004489505597572747,-2.7763589088749366e-06
7.06,-0.04228145609630474,3.2115412551547706e-05,-0.026686004011011732,1.607294549670708e-05,-0.009053108275402025,-2.725870953783766e-06
7.07,-0.042732402762979405,3.233372680711e-05,0.03266906142940229,6.292139670036467e-06,-0.002516214801549595,-2.697584807559243e-06
7.08,-0.04308787397988567,3.271739323906786e-05,0.0129665006909363,4.190050415851339e-06,-0.0007978754059513782,-2.6607656900300966e-06
7.09,-0.042130620583336054,3.0198776812540018e-05,-0.0028520051564839832,1.3747985943145441e-06,0.002024892809057639,-2.6259811199528267e-06
7.1,-0.04182845769307164,2.929565035003634e-05,-0.015821681023098222,-4.3548801008956465e-07,0.004535043977297591,-2.589913968909083e-06
7.11,-0.04170401086689424,2.877501792397652e-05,-0.02668328629162886,1.571181747005033e-05,-0.008983520311293762,-2.541268531439231e-06
7.12,-0.04215634164417281,2.9013973446012642e-05,0.03267333495315938,5.9261283670404915e-06,-0.0024578794933597303,-2.5159432973276274e-06
7.13,-0.04251743700223187,2.9444979787740522e-05,0.012970249416710544,3.82230233804075e-06,-0.0007422874714619898,-2.481665431735713e-06
7.14,-0.0415679244980538,2.6974005251645394e-05,-0.0028488520165126374,1.0046610656999541e-06,0.0020758020025924773,-2.449532304105374e-06
7.15,-0.04127221706617945,2.6116735440950833e-05,-0.01581906560410573,-8.077142675796489e-07,0.004581828999882988,-2.416041056127847e-06
7.16,-0.041153823371331555,2.564108037006463e-05,-0.026681188280974766,1.5349173409532764e-05,-0.008912663978693242,-2.3691194580360188e-06
7.17,-0.041607833001222616,2.5902435751845587e-05,0.032676885552973545,5.559387223341147e-06,-0.0023983616412123878,-2.346551976889333e-06
7.18,-0.04197462001087615,2.6380782003343484e-05,0.01297331871263907,3.45474651256205e-06,-0.0006855806423994191,-2.3146431618220036e-06
7.19,-0.041032928592699136,2.3957387185191692e-05,-0.002846333364558973,6.355839426305219e-07,0.0021277589712414306,-2.2849812199578946e-06
7.2,-0.040743756066774495,2.3145894090248476e-05,-0.01581704385245075,-1.1780253066750966e-06,0.004629591190536092,-2.253890965722427e-06
7.21,-0.040631494346854424,2.2715047620636142e-05,-0.026679645515059747,1.498967462005507e-05,-0.008840805260585179,-2.208585856356562e-06
7.22,-0.04108745441655515,2.3000090720870503e-05,0.0326797781280419,5.196424404202905e-06,-0.002337924195440124,-2.188584726703937e-06
7.23,-0.04145997294813242,2.352526173865499e-05,0.012975772305523492,3.0917306548506972e-06,-0.0006280147281855586,-2.158884332400066e-06
7.24,-0.04052615584448915,2.1148878204257926e-05,-0.002844386512990127,2.7175940363735873e-07,0.002180507016454303,-2.131524738656117e-06
7.25,-0.040243571142184464,2.038261115444584e-05,-0.01581555424401415,-1.5423821775951748e-06,0.004678076961683696,-2.1026718693058544e-06
7.26,-0.04013749432374425,1.9995987088350375e-05,-0.02667859757110591,1.4637182883877483e-05,-0.00876819413463376,-2.0588857976460684e-06
7.27,-0.04059565399394671,2.030551726761587e-05,0.0326820738028033,4.840966955307853e-06,-0.0022768142737064198,-2.0412709816768635e-06
7.28,-0.04097391814283924,2.0876607109698853e-05,0.012977670147407139,2.7368394464095035e-06,-0.0005698337969722747,-2.013629189237335e-06
7.29,-0.04004800331358638,1.854627562636324e-05,-0.002842952691040068,-8.336560260689219e-08,0.0022338050787715754,-1.9884139052925536e-06
7.3,-0.03977203467897539,1.7824284270773205e-05,-0.01581453917154363,-1.8974736430015817e-06,0.004727048271351302,-1.9616454529522015e-06
7.31,-0.03967217129918765,1.7480923375501334e-05,-0.02667798803202004,1.429484974678091e-05,-0.00869506493518724,-1.9192896102230058e-06
7.32,-0.04013275821890261,1.7815375841223613e-05,0.03268383002463793,4.496048479449619e-06,-0.0022152635192081386,-1.903892020862406e-06
7.33,-0.040516757984221385,1.8431105530680725e-05,0.012979068424456841,2.392980748672104e-06,-0.0005112665366891942,-1.8781691095389717e-06
7.34,-0.03959874991465995,1.6145556003266393e-05,-0.0028419769382281856,-4.27004610387365e-07,0.0022874273748920023,-1.8549503009985103e-06
7.35,-0.039329402490295706,1.5466579128542435e-05,-0.015813944900244792,-2.2406328719870175e-06,0.0047762822576821965,-1.8301233114983252e-06
7.36,-0.039235758482192296,1.5165220190738182e-05,-0.02667776437093039,1.3965198688338374e-05,-0.008621636737990126,-1.7891164272273417e-06
7.37,-0.039698979472646556,1.5524710406111808e-05,0.03268510060827623,4.164089784522693e-06,-0.002153488481336981,-1.775777501109682e-06
7.38,-0.040088682524697106,1.6183525630708573e-05,0.012980019654662556,2.0624648550381184e-06,-0.0004525266380547271,-1.7518431809415367e-06
7.39,-0.03917856392199326,1.394122151054944e-05,-0.002841408024423231,-7.569537828562524e-07,0.0023411630132329515,-1.7304826460228607e-06
7.4,-0.0389158213920382,1.3303740331593872e-05,-0.015813721434554395,-2.5697609578992607e-06,0.004825570852428051,-1.7074635827711318e-06
7.41,-0.0388283815855317,1.3042882329727945e-05,-0.026677877880132428,1.3650200482006657e-05,-0.008548113764800615,-1.667730958550158e-06
7.42,-0.03929442349281942,1.3427259304421568e-05,0.03268593581573498,3.846972812503704e-06,-0.002091691016022276,-1.6563022193737194e-06
7.43,-0.03968977687840436,1.412740147088698e-05,0.01298057275889164,1.7470770928257285e-06,-0.00039381319680437707,-1.634035006381941e-06
7.44,-0.038787510243665224,1.192658416471204e-05,-0.0028411983077347713,-1.0715206357223372e-06,0.0023948155906985697,-1.614403628484061e-06
7.45,-0.038531336432612306,1.1328920024311628e-05,-0.01581382247373142,-2.883256942892621e-06,0.004874720376099095,-1.5930678063962273e-06
7.46,-0.0384500661088083,1.1106857655818203e-05,-0.026678283484571352,1.3351342073151334e-05,-0.008474685805259204,-1.5545404728209335e-06
7.47,-0.03891909665654225,1.1515703945974565e-05,0.03268638247178046,3.5461081748374717e-06,-0.002030058703128946,-1.544883088945496e-06
7.48,-0.039320028344391744,1.2255281234274662e-05,0.012980773202997398,1.4481441036094607e-06,-0.00033531113253839175,-1.5241697203700067e-06
7.49,-0.03842555757138655,1.0094058922049953e-05,-0.002841303707867837,-1.3694590060857404e-06,0.0024482027732323137,-1.5061469442390303e-06
7.5,-0.03817589797172616,9.534346645523328e-06,-0.01581420521645782,-3.179954015389502e-06,0.00492355111731941,-1.4863779926611696e-06
7.51,-0.03810074436394473,9.349250262857822e-06,-0.026678939670787827,1.3069689316240362e-05,-0.008401528653476834,-1.4489919761940996e-06
7.52,-0.038572912925971536,9.782006316072511e-06,0.03268648406162811,3.2624966373085013e-06,-0.0019687652784131527,-1.440976315998662e-06
7.53,-0.03897933341434623,1.055895815227359e-05,0.012980663077755139,1.1665941464949126e-06,-0.00027719162171020934,-1.421711203151138e-06
7.54,-0.03809258529940962,8.435341314338984e-06,-0.002841683492960101,-1.649909925043136e-06,0.0025011558625996832,-1.4051845342564218e-06
7.55,-0.03784936851936038,7.911618027378609e-06,-0.015814830227611765,-3.4590615367847547e-06,0.004971896898811108,-1.3868738877881962e-06
7.56,-0.03778026226974873,7.76156916515447e-06,-0.02667980834480943,1.280594391965826e-05,-0.008328804556955016,-1.3505695753764982e-06
7.57,-0.03825570073168194,8.217488911554938e-06,0.032686280837523896,2.996784898847907e-06,-0.0019079710776639868,-1.344074763491502e-06
7.58,-0.038667504487222004,9.029701431018111e-06,0.012980281267616078,9.030117692469837e-07,-0.00021961254242070676,-1.3261594799497018e-06
7.59,-0.037788390239157366,6.941629493439905e-06,-0.0028423001552368987,-1.912348045219869e-06,0.0025535193517162843,-1.3110240066481476e-06
7.6,-0.0375515294326334,6.451870149248862e-06,-0.01581566138497692,-3.7201125492078605e-06,0.005019604632294134,-1.2940704228457987e-06
7.61,-0.03748838596884241,6.334870406021764e-06,-0.026680854636751405,1.2560494951622217e-05,-0.008256662675579094,-1.2587920132200262e-06
7.62,-0.037967209474132346,6.813110076109297e-06,0.032685809996380044,2.749316018611875e-06,-0.0018478234908058814,-1.2537054903065795e-06
7.63,-0.038384276477287926,7.65843388705889e-06,0.01297966356617053,6.576871996265019e-07,-0.00016271892880789004,-1.2370482932378097e-06
7.64,-0.037512693049635004,5.603766339845606e-06,-0.0028431193310751723,-2.1565332751355622e-06,0.002605150470700689,-1.2232062313405829e-06
7.65,-0.03728208731068605,5.1459370098427826e-06,-0.015816665630552507,-3.962916418290012e-06,0.0050665338644594275,-1.2075153341785296e-06
7.66,-0.037224808187019676,5.0599524570316134e-06,-0.02668204677647168,1.2333465256257473e-05,-0.008185239548547604,-1.1732103658262197e-06
7.67,-0.03770711599848653,5.559561699897131e-06,0.032685105759711064,2.5201748339548133e-06,-0.0017884574238406824,-1.1694274542431758e-06
7.68,-0.03812931304914002,6.4358296469890774e-06,0.012978842800492885,4.3066080080206615e-07,-0.00010664343294531785,-1.1539428368691037e-06
7.69,-0.03726514453461505,4.412461507286025e-06,-0.0028441095789588644,-2.382467275550339e-06,0.0026559187257208664,-1.1413030959923983e-06
7.7,-0.03704068021193052,3.984474972185126e-06,-0.015817812846208312,-4.187516265218969e-06,0.005112556316055548,-1.1267869441099517e-06
7.71,-0.03698915437944095,3.927480562992969e-06,-0.0266833559603441,1.2124753127979828e-05,-0.008114659567245313,-1.0934058907819897e-06
7.72,-0.0374750306963989,4.447446855238013e-06,0.03268419954238766,2.3092287178329008e-06,-0.0017299957666624495,-1.0908293681439774e-06
7.73,-0.03790221273725081,5.352491783128244e-06,0.012977849008777298,2.2176293475992466e-07,-5.150679229752879e-05,-1.0764376413987995e-06
7.74,-0.03704533169113233,3.3583180680807345e-06,-0.002845242281779292,-2.5903544771887873e-06,0.0027057054325574197,-1.0649154125955772e-06
7.75,-0.036826883613727546,2.958131517516449e-06,-0.0158190757382215,-4.39415085165468e-06,0.005157555415991345,-1.0514920913032452e-06
7.76,-0.03678098869031032,2.928111086930585e-06,-0.026684756129213838,1.1934069582075912e-05,-0.008045035452169698,-1.0189880167447076e-06
7.77,-0.03727050335911031,3.467359732667319e-06,0.03268312008586349,2.116164007758654e-06,-0.001672549864876637,-1.017527699146653e-06
7.78,-0.037702514816828625,4.399067776716947e-06,0.012976709546919096,3.0649566755013604e-08,2.5816991082348254e-06,-1.0041546006653208e-06
7.79,-0.036852783473761974,2.431992385254489e-06,-0.002846491442554111,-2.7805672898266757e-06,0.002754403246704869,-9.936709648257725e-07
7.8,-0.03664021616778257,2.057589654214098e-06,-0.01582042963299557,-4.58322058825843e-06,0.005201425832255711,-9.812642007895012e-07
7.81,-0.03659981960169034,2.0525536825743984e-06,-0.02668622387957953,1.1760971551126485e-05,-0.0079764687321519,-9.495924654162835e-07
7.82,-0.037093028977253084,2.610001104130788e-06,0.0326818936180473,1.940518433147108e-06,-0.0016162199938776697,-9.491648016305671e-07
7.83,-0.037529704908223493,3.566285045053519e-06,0.012975449283914031,-1.431660675801011e-07,5.5523717515963125e-05,-9.367411304252079e-07
7.84,-0.03668697634573448,1.624300693947589e-06,-0.002847833613373041,-2.953615181636997e-06,0.002801915691708674,-9.272226866979642e-07
7.85,-0.03648014522461551,1.2736922627709646e-06,-0.015821852343833598,-4.7552573493958585e-06,0.005244073001323752,-9.157614843962004e-07
7.86,-0.0364451054313264,1.2917134029066801e-06,-0.026687738259312255,1.1604891325486564e-05,-0.007909050224238613,-8.84879497113232e-07
7.87,-0.03694205308768517,1.8662404954739031e-06,0.03268054395988429,1.781709855067185e-06,-0.001561095833576968,-8.854071750554232e-07
7.88,-0.0373832203681701,2.845084168257017e-06,0.012974090717321474,-3.002854201159596e-07,0.00010723143587275863,-8.738684501850254e-07
7.89,-0.036547339661296974,9.262279832000786e-07,-0.002849247664471477,-3.1101173216540853e-06,0.0028481566873128244,-8.652469639201299e-07
7.9,-0.03634609209157702,5.974953865006682e-07,-0.015823324019947904,-4.910897789605159e-06,0.005285412657607808,-8.546652628747075e-07
7.91,-0.03631625954625406,6.367084637304288e-07,-0.026689280625546985,1.1465162541211427e-05,-0.007842860512694378,-8.245322721132022e-07
7.92,-0.03681697702262454,1.22720500428386e-06,0.032679092711873636,1.6390616186853255e-06,-0.0015072569422520917,-8.259438384008744e-07
7.93,-0.037262455467867994,2.226654416404017e-06,0.012972654106491177,-4.4139991497117836e-07,0.000157627051361694,-8.152299802005429e-07
7.94,-0.036433260746093765,3.290256955779114e-07,-0.0028507146687672957,-3.2507784894958104e-06,0.002893050078897182,-8.074420496509079e-07
7.95,-0.03623743713987437,2.0339285811132868e-08,-0.015824826986587937,-5.050859867943693e-06,0.005325370364411644,-7.976784014797008e-07
7.96,-0.03621265532771645,7.894129794294713e-08,-0.026690834484810466,1.1341043008165621e-05,-0.007777970425713574,-7.682553201104963e-07
7.97,-0.03671716291009375,6.842970634579615e-07,0.03267755935176808,1.5118248061375328e-06,-0.001454773228124955,-7.704848135733003e-07
7.98,-0.03716676628684468,1.702487040233791e-06,0.01297115766796253,-5.67269277172305e-07,0.00020664231540791392,-7.60539845915503e-07
7.99,-0.03634408978214765,-1.7572610033766978e-07,-0.002852217768634091,-3.376367972552136e-06,0.0029365291695607736,-7.53526587140717e-07
8.0,-0.03615352451191711,-4.661249164428227e-07,-0.015826345602931724,-5.175922305635714e-06,0.005363881047721253,-7.445238514840836e-07
8.01,-0.036133631038381964,-3.8988368089576397e-07,-0.02669238534203089,1.123173465280488e-05,-0.007714441508531435,-7.157731108549465e-07
8.02,-0.03664193840791086,2.2926549547719333e-07,0.03267596141220963,1.39919766125294e-06,-0.0014037054173715027,-7.18759710415337e-07
8.03,-0.037095475438064796,1.2644196800692953e-06,0.012969617628755259,-6.787026356984522e-07,0.00025421806744103936,-7.09531482733733e-07
8.04,-0.036279144417505904,-5.96109828165936e-07,-0.002853741998265491,-3.4877011840706944e-06,0.0029785362561107437,-7.032382319306957e-07
8.05,-0.036093666810899094,-8.699174713910907e-07,-0.01582786610221376,-5.2869067115241826e-06,0.0054008885340774745,-6.949432904170066e-07
8.06,-0.03607849423659104,-7.776623789368386e-07,-0.026693920585074693,1.1136400838490805e-05,-0.007652326491730952,-6.668287192750569e-07
8.07,-0.03659060123339941,-1.4578560580957856e-07,0.032674314578429176,1.3003424440434802e-06,-0.0013541055173717474,-6.705164066598847e-07
8.08,-0.03704787648217689,9.046452476013656e-07,0.01296804847505939,-7.765421471173083e-07,0.0003003037735809582,-6.619563344265292e-07
8.09,-0.036237714198250615,-9.398348765898845e-07,-0.0028552741859755315,-3.5856237531172786e-06,0.003019022170115431,-6.56332367085885e-07
8.1,-0.036057149461754534,-1.198641186306304e-06,-0.01582937646738003,-5.384662131086793e-06,0.005436345093668483,-6.486958543871383e-07
8.11,-0.036046526137312185,-1.091944312747728e-06,-0.026695429271583748,1.10541813064146e-05,-0.007591669753624313,-6.211825789802056e-07
8.12,-0.03656242341776306,-4.483524662646232e-07,0.032672632839236826,1.2143999556767985e-06,-0.0013060172740952747,-6.255198164682802e-07
8.13,-0.03702323827070586,6.157474530255058e-07,0.012966462987762384,-8.616489013386245e-07,0.00034485707133936764,-6.175826389476543e-07
8.14,-0.0362190647607008,-1.2142287175720412e-06,-0.002856802812090109,-3.6709978488313437e-06,0.0030579458250852413,-6.125809051298867e-07
8.15,-0.0360432347612516,-1.4595258335248218e-06,-0.01583086628897945,-5.470051784099061e-06,0.0054702109896864835,-6.055569563176017e-07
8.16,-0.03603698575105341,-1.339861555038624e-06,-0.026696902075684648,1.098420496971943e-05,-0.007532507775712703,-5.786113183346619e-07
8.17,-0.03655665544499698,-6.855493950297387e-07,0.03267092862913046,1.1405019619130627e-06,-0.001259476622635201,-5.835507416147767e-07
8.18,-0.037020808818510886,3.907185686102821e-07,0.012964872393439464,-9.348908854662887e-07,0.0003878433212991907,-5.761942958048281e-07
8.19,-0.036222441810451755,-1.426192497433476e-06,-0.0028583178135477283,-3.744690521015417e-06,0.003095273770738114,-5.717711708298841e-07
8.2,-0.03605116585703172,-1.659419268662532e-06,-0.015832326640818906,-5.543941775681851e-06,0.005502454034892933,-5.65317184160849e-07
8.21,-0.036049113685265866,-1.5281464982308535e-06,-0.026698331110353024,1.0925600774838583e-05,-0.0074748695903122785,-5.389066737012892e-07
8.22,-0.036572530000000825,-8.640643756052668e-07,0.0326692128904682,1.0777817253154746e-06,-0.0012145121299838614,-5.444047998815246e-07
8.23,-0.0370398192472976,2.2297719226571644e-07,0.012963286541989305,-9.971327984297497e-07,0.00042923516667369723,-5.37589809527415e-07
8.24,-0.03624707478167011,-1.582254327558985e-06,-0.0028598105750177183,-3.807563850037418e-06,0.0031309797552283164,-5.337048594625405e-07
8.25,-0.036080170460195404,-1.8047074945570785e-06,-0.015833749946736475,-5.6071915779307856e-06,0.005533049156254143,-5.277812738403222e-07
8.26,-0.03608213578587538,-1.6631496180252725e-06,-0.026699709794186788,1.087750682964648e-05,-0.007418777219496525,-5.018744748191311e-07
8.27,-0.036609265698928084,-9.901768294184876e-07,0.03266749525110413,1.0253828427678936e-06,-0.0011711454292192454,-5.078914253935567e-07
8.28,-0.037079487213986795,1.0631495683810499e-07,0.012961713942161168,-1.0492275225281654e-06,0.00046901210155062033,-5.01581304180222e-07
8.29,-0.03629218047862537,-1.68848046655512e-06,-0.0028612737157374113,-3.8604667179077966e-06,0.0031650442961374614,-4.981970654219146e-07
8.3,-0.03612946425590735,-1.901421242678225e-06,-0.01583512988290181,-5.6606460952078285e-06,0.005561977968428872,-4.927671517218697e-07
8.31,-0.03613526663670541,-1.7507595373444929e-06,-0.0267010327537065,1.0839077984320586e-05,-0.007364246104626135,-4.6733369754643266e-07
8.32,-0.03666607041097336,-1.0697753793920128e-06,0.03266578411320609,9.824665717074219e-07,-0.0011293916443733832,-4.738329361804289e-07
8.33,-0.03713902042790096,3.496758438359393e-08,0.012960161921427016,-1.092009071636164e-06,0.0005071600485423958,-4.679936041120992e-07
8.34,-0.036356966326422935,-1.7505819016605528e-06,-0.0028627010273396536,-3.904228020774295e-06,0.0031974542609245512,-4.6507537638155683e-07
8.35,-0.036198254242947314,-1.9551382735016887e-06,-0.015836461226825804,-5.705129138769521e-06,0.005589228356792609,-4.6010504197606705e-07
8.36,-0.036207712739155795,-1.7965007259590493e-06,-0.02670229571677396,1.0809492036252595e-05,-0.007311285525810908,-4.3511557954555184e-07
8.37,-0.03674214452686897,-1.1083045592386043e-06,0.03266408674207355,9.482178111560184e-07,-0.0010892598053394492,-4.4206366440423735e-07
8.38,-0.03721761967057091,3.5438318946034997e-09,0.012958636723681138,-1.1262868527253303e-06,0.0005436709464658655,-4.36663376532127e-07
8.39,-0.03644063349739213,-1.7738344126883021e-06,-0.002864087358389611,-3.939651164013244e-06,0.0032282024574576103,-4.341790287433632e-07
8.4,-0.0362857417712803,-1.971072194351109e-06,-0.015837739786306315,-5.7414381520649345e-06,0.005614794070607151,-4.296366344078958e-07
8.41,-0.03629867547871868,-1.8054979733506116e-06,-0.026703495388247234,1.0787954715849546e-05,-0.007259899010702609,-4.050627948464265e-07
8.42,-0.03683668397869155,-1.1108358677347496e-06,0.03266240938160081,9.218498941451342e-07,-0.001050753252219835,-4.1242914508557184e-07
8.43,-0.03731448179777885,7.078782005009998e-09,0.01295714360693978,-1.1528410870244046e-06,0.0005785423486442383,-4.074383317735213e-07
8.44,-0.03654237984207498,-1.7631407445151126e-06,-0.002865428498921574,-3.9675096885565355e-06,0.003257287235197897,-4.0535812002311747e-07
8.45,-0.03639112538422751,-1.9540280504770635e-06,-0.01583896229284676,-5.770340039329025e-06,0.005638674326896062,-4.012143086179957e-07
8.46,-0.03640735412702156,-1.7824675069277873e-06,-0.02670462933451745,1.0773703598075398e-05,-0.007210084732118493,-3.7702868335587737e-07
8.47,-0.03694888292216092,-1.0820677687206626e-06,0.0326607573519766,9.026083317557028e-07,-0.0010138700286263756,-3.8478535939162525e-07
8.48,-0.037428802581729315,4.0962788716569776e-08,0.012955686914395415,-1.1724192526275408e-06,0.0006117770322995955,-3.8017647737886596e-07
8.49,-0.03666140253599792,-1.723012843513061e-06,-0.0028667211093846845,-3.988543891970749e-06,0.003284712097497611,-3.7847287450836903e-07
8.5,-0.03651360355405586,-1.90845561576225e-06,-0.01584012627731113,-5.792567963625065e-06,0.005660873425469153,-3.747004107964473e-07
8.51,-0.036532948257672615,-1.7317702827313042e-06,-0.026705695965745235,1.0766011072799395e-05,-0.007161835894068783,-3.508765316392137e-07
8.52,-0.03707793647222957,-1.0263079275318887e-06,0.03265913512073837,8.897736398780726e-07,-0.0009786032635009292,-3.5899802885578377e-07
8.53,-0.037559779126894455,1.0096812275151024e-07,0.012954270207643503,-1.185733420300341e-06,0.0006433826194611654,-3.547454223790584e-07
8.54,-0.036796900690916345,-1.6575896211179497e-06,-0.0028679626051797413,-4.003458319684744e-06,0.0033104853254290675,-3.533929585130766e-07
8.55,-0.03665237709782332,-1.8384227473688952e-06,-0.015841230034396858,-5.808818991015765e-06,0.005681400375510244,-3.4996657938065426e-07
8.56,-0.03667466035750522,-1.6574208672182067e-06,-0.026706694340461468,1.0764186493285049e-05,-0.007115141105779843,-3.2647890178429277e-07
8.57,-0.037223043065637285,-9.474998563518966e-07,0.03265754639159013,8.82663365604458e-07,-0.000944941541066292,-3.34941957088844e-07
8.58,-0.037706612374677206,1.8322232619993883e-07,0.012952896302209638,-1.1934583675025454e-06,0.0006733712097664369,-3.3102172839448276e-07
8.59,-0.036948077628551346,-1.5707080081028835e-06,-0.0028691511033684947,-4.01292001235486e-06,0.0033346196135037526,-3.2999684187487687e-07
8.6,-0.036806651539933455,-1.7476509128755424e-06,-0.01584227248940806,-5.819752470755545e-06,0.005700268534068086,-3.2689311646298515e-07
8.61,-0.03683169795820618,-1.5630519101250684e-06,-0.026707624156685483,1.0767577612106254e-05,-0.007069984743454485,-3.037170049796065e-07
8.62,-0.03738340671688434,-8.492673231330627e-07,0.03265599420210208,8.806334205429238e-07,-0.0009128692586370772,-3.125004158215984e-07
8.63,-0.03786850925280305,2.8418156716725207e-07,0.012951567374130946,-1.1962303658939666e-06,0.0007017590254154759,-3.0889030449203164e-07
8.64,-0.03711414306550864,-1.4658052549521017e-06,-0.00287028532497402,-4.017557407764e-06,0.0033571317175412835,-3.081712025918649e-07
8.65,-0.03697563913718227,-1.6395418356296432e-06,-0.015843253171610172,-5.8259890499432146e-06,0.005717495256709169,-3.05368401730774e-07
8.66,-0.03700327582123464,-1.4520296076625527e-06,-0.02670848566310724,1.077557140506028e-05,-0.007026347299473889,-2.8248011697879837e-07
8.67,-0.03755823906104183,-7.348877062440806e-07,0.032654480950355946,8.830788193292777e-07,-0.00088236697201333,-2.9156457227771856e-07
8.68,-0.03804468468260325,4.006217579899385e-07,0.012950285039892151,-1.1946465456746759e-06,0.0007285660685486307,-2.8824384273567957e-07
8.69,-0.037294315120561805,-1.3460432768397368e-06,-0.0028713645505717977,-4.017959802116817e-06,0.003378042114946064,-2.8781037171108215e-07
8.7,-0.03715856092156855,-1.517195258315951e-06,-0.015844172098766762,-5.828110230822863e-06,0.00573310156057403,-2.8528834605597677e-07
8.71,-0.037188617838523896,-1.3273293575366552e-06,-0.02670927956138769,1.078759437043317e-05,-0.006984205718877958,-2.626650326811529e-07
8.72,-0.0377467612722171,-6.073630487435366e-07,0.0326530085104082,8.894339080681413e-07,-0.0008534117282841475,-2.7203295515545935e-07
8.73,-0.038234363426425944,5.296385552355787e-07,0.012949050365307357,-1.1892647533569042e-06,0.0007538157912053433,-2.689822918203589e-07
8.74,-0.037487822073245525,-1.2142731264930262e-06,-0.0028723885137083016,-4.014677289234844e-06,0.003397374677539894,-2.6881581567784707e-07
8.75,-0.03735464849441428,-1.38338229760393e-06,-0.015845029723848825,-5.826658390811542e-06,0.005747111799980182,-2.665558821211744e-07
8.76,-0.03738695864896613,-1.191731158201037e-06,-0.02671000699727699,1.0803112384994472e-05,-0.006943533722975679,-2.441755571576053e-07
8.77,-0.03794820578661984,-4.693490041063342e-07,0.03265157825893539,8.991721643431958e-07,-0.0008259773858977889,-2.538109565681406e-07
8.78,-0.03843678184622945,6.685851872134663e-07,0.012947863998746811,-1.180603824646047e-06,0.0007775347780087883,-2.5101236616868585e-07
8.79,-0.03769390408692175,-1.0730616395449033e-06,-0.002873357365373863,-4.008221100688135e-06,0.003415156357092028,-2.5109565371119403e-07
8.8,-0.03756314555403151,-1.240625380205529e-06,-0.015845826899507642,-5.8221371893400836e-06,0.005759553354704494,-2.4908048949310164e-07
8.81,-0.037597545468059934,-1.0476597367414797e-06,-0.02671066943626954,1.0821630188661217e-05,-0.006904302119988047,-2.2692203087733447e-07
8.82,-0.03816181783022898,-3.233058265550426e-07,0.03265019114628842,9.118056364741318e-07,-0.0008000349219101349,-2.3681036755765083e-07
8.83,-0.03865118937795842,8.151257446797899e-07,0.012946726180018686,-1.1691442043990772e-06,0.0007997524416462,-2.3424708812212918e-07
8.84,-0.03791181468315585,-9.247269616707854e-07,-0.0028742716207119656,-3.999064281035845e-06,0.0034314168836048348,-2.3456420776762334e-07
8.85,-0.037783309441152824,-1.0911804793067859e-06,-0.01584656479813873,-5.815012298297736e-06,0.005770456330996228,-2.327777518487664e-07
8.86,-0.03781963933136012,-8.973266574230365e-07,-0.026711268654722176,1.0842690560852501e-05,-0.0068664791026925845,-2.1082088669204129e-07
8.87,-0.03838685687540533,-1.7135626251274516e-07,0.03264884774978327,9.268840860951943e-07,-0.000775552726367785,-2.2094894498807736e-07
8.88,-0.038876850005920005,9.671197176430724e-07,0.012945636811423356,-1.1553288524092603e-06,0.000820500731191632,-2.186053610112764e-07
