timestamp, accel_x, accel_y, accel_z, gyro_x, gyro_y, gyro_z
0.01,-0.002136258522197242,0.007546635953584656,0.01959128312372036,0.012283763535891206,0.004518179075648784,-0.0027632166509645446
0.02,-0.002136258522197242,0.007546635953584656,0.01959128312372036,-0.008233059217390648,0.017568120831904475,0.004771328567431471
0.03,-0.002136258522197242,0.007546635953584656,0.01959128312372036,0.0031980182458979734,0.006605053285455532,0.006513056325131894
0.04,0.017859916282703128,-0.015377097678089903,-0.007997394194297713,-0.012622864511938928,0.016533836411223503,0.012731740633620751
0.05,-0.0032123437586271545,0.0013860772729804905,-0.018093307278720244,-0.0044430630191012906,0.011060997495829344,0.009005436667740908
0.06,-0.022210132867639145,-0.003231677904583192,0.5007904113374237,0.015584034012667211,0.010758806535587667,-0.007683093552964262
0.07,0.0066581159739824945,-0.004816754796473739,0.08312170855215978,-0.006634942092648027,0.0010735607113832573,0.016985403900286477
0.08,0.012242884645548149,0.028877991937718995,0.12576198836070407,0.002548186720671263,0.004556041739288702,0.010275063969275505
0.09,-0.011612751021741839,-0.012085645185029073,0.06097908139166311,0.004765671023092333,0.013859670014587586,-0.011921858909346442
0.1,-0.009990670143584566,-9.150853514860519e-06,0.04689352613572573,-0.008966812954802911,0.005890198972512252,0.011916257239781222
0.11,-0.002668763917285287,0.012783683105233897,0.07303067480129283,0.006144072073478378,0.005408486179062423,0.004888454516392945
0.12,-0.01175065059619438,0.005837759750712321,0.15384611314709984,0.005157903925061147,0.0073430045069553425,0.0002200880996222278
0.13,0.0006460325525571194,-0.004530200224358506,0.1271990839949465,0.002644992313340126,0.010947823275709168,0.005641381086935404
0.14,-0.0038425677422048027,-0.002949339714991881,0.12074271356911868,-0.004512511400690013,0.004880358912095806,0.0016345638010782986
0.15,-0.017535441456393536,0.003926933471746882,0.11017964192032248,0.0010182332698733334,-0.012577624049376047,-0.003335553929741251
0.16,-0.007629149351126006,0.004552239484282622,0.09186476279176284,-0.00557797805818893,0.012953520646876287,-0.014954698800365682
0.17,-0.013812456918312661,0.013708917701268853,0.22061256199067206,-0.0060071683906827815,0.003989634394854906,-0.002364748455792735
0.18,0.00613940418837464,0.002350165055841738,-0.06327910285652358,0.014166870371451477,0.00970132052356177,0.012220770221549312
0.19,-0.013064602506208873,0.006457694129596955,0.1924735390225501,0.004103395013510496,-0.002640968394308404,0.002742977224731254
0.2,-0.01831659637935527,0.011656615587174887,-0.18988217451654582,0.0032935946579860445,-0.005698263561737448,0.00775928669440206
0.21,-0.014935581088067461,0.006856736650442395,0.1607313085060189,0.006598442082627993,0.016076375955192474,-8.072886442783711e-05
0.22,-0.016924063173716725,-0.0013230914764151159,0.2870865185495731,-0.01912721291456405,-0.0037519225499364484,-0.00911094443079841
0.23,-0.0045349924039773774,0.008574381264405477,0.24270557372256205,0.015228656882632242,0.016473156815323305,-0.005776592325600606
0.24,0.010673863772569656,-0.014341180233873912,0.2637658427079034,-0.01880020266074292,0.004791809057611868,0.0064345041064261446
0.25,-0.015578492846719548,-0.013059677441712712,0.552566609489491,0.017520594887811665,-0.010463035158385325,0.0005085217610281702
0.26,-0.03431235234336062,-0.0017601241431578836,0.144857057659609,0.0004569055402951435,-0.003918743215870626,1.9052019700804335e-05
0.27,-0.012585535327259562,0.00047494252193983294,0.2626674833522443,-0.007979020935914481,-0.00201666789071869,0.012141321197237865
0.28,-0.005218376241860083,-0.0037298631393584947,0.23635052675061277,-0.0017406875379180863,0.019749863899252366,-0.0024459400016297156
0.29,-0.0031147992719393076,0.010006191444804817,0.23084572682857618,0.0015056419158768351,0.009445961287928226,0.0020455157089399843
0.3,-0.004200105784545266,0.005348891377696501,0.19119152098217687,0.0026558728369196535,-0.004883588419384482,0.015255833001243177
0.31,-0.026010759746940695,0.0018433007542175116,0.19084802734641165,0.005194598449351411,-0.00395169072510321,0.003465191379967672
0.32,-0.012850163587425169,0.0022608727894782607,0.2920811675076896,0.00469394672866033,0.011974021659286599,-0.0005855618974989108
0.33,-0.015787999507544496,0.0033770340664190223,0.26567416346761413,0.006816690511260143,-0.0042335062665464895,0.0190125956145078
0.34,-0.019523348237251142,-0.019009623694258907,0.2510540978945086,0.0012154665179088984,-0.0055958126054496665,0.004853995667837982
0.35,-0.021289649000496885,-0.010694778886216233,0.2260396017238115,-0.009921547384243924,-0.0075412058097017185,0.009771474899283535
0.36,-0.026476490127706004,-0.012205434159595928,0.21937999222328142,-8.330233217858276e-05,0.0065740768535312395,-0.005684835628716243
0.37,-0.011038124817407667,-0.008729306421961328,0.3269235416498618,-0.009116176794426657,-5.128482737651514e-05,0.01192309615469532
0.38,-0.006683324135012492,-0.011357367796617796,0.299828458733663,0.0002649202824255286,-0.009460070400995502,-0.005540865997748211
0.39,-0.01920037085429678,0.004048277827305721,0.25631277564575605,-0.01497235592799175,0.0015900219306681247,-0.004946110866668253
0.4,-0.024807414989987144,0.01278366859646049,0.24745974473251298,0.014506218938524633,-0.009276859153071748,0.001037847369642182
0.41,-0.005704776968367456,0.009959823717768948,0.2330953423613378,-0.023955924181109867,-0.007736339719275736,0.007260613663926415
0.42,-0.012582513636763454,-0.010938367480008772,0.32646767361208934,0.0018498836771098336,0.010779612583156075,-0.010983032245889816
0.43,-0.027031749910199937,0.008374399685943126,0.31678716875262236,0.014817029675032624,-0.005909660438446834,0.005334632414407036
0.44,-0.015712222683312065,0.018082140519161856,0.2724861808403698,0.006001355628173322,-0.017232832777938464,-0.007501301394073286
0.45,-0.009422836275592608,-0.00685761216133598,0.26751282236578,0.012595826193489796,-8.444974902653365e-05,-0.012850616002708985
0.46,-0.011079392079368838,0.014890255625617682,0.23431946230965386,0.003065475789937081,0.012644934402349851,0.007261718815066645
0.47,-0.008298732273788445,0.0051763780705218684,0.36538639470838546,0.007892810992018204,-0.0014791879514442167,-0.0078882392376091
0.48,-0.02285444527239921,-0.008648872651423332,0.3229575398027151,-0.009033530855174048,-0.009759219200307732,0.004465297839283787
0.49,0.006696271708886221,0.020211015117794676,0.2980891708979856,-0.0024449980979340024,-0.009757370443844733,-0.0020393611968277207
0.5,-0.00699742937993094,0.009732577553674912,0.2564113564186146,0.001077505383314776,-0.0167106347416753,0.006232598530152912
0.51,-0.0024967863947621335,-0.011159254969763987,0.25556495036284493,-0.011518897420925923,-0.002516980173693121,0.005540675634174293
0.52,-0.017826956563980867,0.00997608293680669,0.34083928422925863,0.006514422620032875,-0.004470815198400277,0.004998108151364131
0.53,-0.014588963537356637,0.0009834115522617255,0.32890902214849355,-0.004296283789703077,-0.009538451209548555,-0.0038640396840052766
0.54,-0.009907444398898426,0.01066997604456811,0.28280145319752353,-0.004353950315912075,-0.001689517033785884,0.01906902336614813
0.55,0.009673491488935364,-0.022331686085496,0.272731206541852,-0.004674637348077288,-0.011907967644961,0.0024823490081978526
0.56,0.006199052422261195,0.0038826121072521075,0.2270557144940121,0.008223037635875867,-0.007784841765729758,-0.0022773923980369767
0.57,-7.818202820740645e-05,-0.007872190899935221,0.3671794512777717,-0.0027006600870968303,-0.006727811602405133,0.010732328908490435
0.58,-0.002033872397381423,-0.005659976860646612,0.33927747125901103,-0.004147621137761084,0.005143740610332114,0.008383292409235892
0.59,-0.000730359852666642,0.0024917221059812572,0.2903807584245286,0.005647995160257106,0.0048893789006843385,0.0038641987319077776
0.6,0.00511859772542487,-0.0021112962071003797,0.28142391509904824,-0.006655594273431972,0.002536722640053714,-0.01489872556478029
0.61,-0.006839318430614496,-0.007532454231726609,0.25851615927112986,0.0012917150689434492,0.01096653625440774,0.0006442358259904353
0.62,-0.0033448069644273788,-0.0005119255632042162,0.35255088541530805,0.001576290058171673,0.005876460132211088,0.013680989472040278
0.63,-0.015978407379851955,-0.00585890024419123,0.3422583115920053,0.007281404585523576,-0.0037121914966151614,-0.00572038174620007
0.64,0.012394217312817982,-0.008920626955822854,0.2919079599205249,0.004553332943183859,-0.0017841181988691316,-0.0017645753721220493
0.65,-0.020423576398581254,-0.003995358444434553,0.2972178444877206,-0.004350573944706532,0.01819121969450231,-0.005866098748845004
0.66,-0.02477084778746722,0.018825897507632736,0.24397093304102152,-0.02920240045904797,0.0124792798261533,-0.0003235993807338749
0.67,0.003253637460045153,-0.004825628578747266,0.36003277755695406,-0.008495079522910428,0.01238191597178406,-6.166195870976432e-05
0.68,-0.003304622042818439,-0.007942357346915533,0.3400276977011655,-0.006554947568605706,0.002362809266008706,-3.5121285032026564e-07
0.69,-0.02546247110416444,0.0023034019465526245,0.30389066590761393,-0.019337771380754598,0.01379490480380861,0.0004822567953011458
0.7,-0.0210997464437591,-0.010855703854290386,0.2948306603193525,0.00017178638754052934,-0.003090976341079947,0.020135932163899382
0.71,-0.026498350074434754,0.015982831026474766,0.2689647884341221,-0.009818278851737987,0.014180341793424082,0.011326233275969353
0.72,-0.01832477056842787,0.007685596132050537,0.7680863076595406,-0.010749376349101137,0.010509831938544122,0.004145875885564049
0.73,-0.019636198025679882,0.00852060011143764,0.30275446308405124,-0.021427313856511906,0.009368181518605172,0.00865139308000135
0.74,-0.0031353100411731106,-0.007812915802514708,0.28899201435859306,-0.008574804292654573,0.012291727223566824,-0.004968784723314308
0.75,-0.011249765027781952,0.007519816909222498,0.26058078617953756,-0.013160175840508818,0.0005452498156717361,0.019414666018169238
0.76,-0.0464362576459668,0.02159600147894157,0.2502538415310198,0.008660346428894801,0.019020460990783375,0.006509153422538825
0.77,-0.019561320375606355,0.030671183577764122,0.3376337107571391,-0.009115230849541621,0.005507546933731735,0.010817354561219666
0.78,-0.01211955431204151,-0.003121164141484757,0.2928058147982557,-0.00762936123164404,0.005504102105332661,0.023885116269960094
0.79,-0.014871149720468546,-0.0011476749754450784,0.2705286525352033,-0.0052460955945853325,0.028295224455897758,0.012619465820057414
0.8,-0.029763628974203402,0.0023983871766079332,0.23721664205897566,0.012401128448998464,0.012666013770153587,0.021135927985004174
0.81,-0.029236744020184186,-0.011667364757538753,0.22982789181742766,-9.589138236661653e-05,0.027071053309778444,-0.011347928513213966
0.82,-0.015345547673297384,0.009117536366408285,0.34382287250789256,-0.00894901513466246,0.021288519307086827,0.003397535973058184
0.83,-0.030725738643644425,0.013645843619286451,0.5121575245678037,-0.004509291963094826,0.014800797678705952,-0.0004992898321822736
0.84,-0.05201476366996878,0.020034582838260255,0.25570729679152454,-0.012004279973093588,0.017487102920956236,0.014272608740519721
0.85,-0.03606672221844488,0.005872178386306582,0.22252973713504662,-0.02162633561944816,-0.0018658335453283856,-0.007011333102243958
0.86,-0.038232720596747746,0.016692877143444553,0.21952799553299757,-0.018349014611071995,0.008803334298558608,0.009449864092807892
0.87,-0.03590946834440478,0.015160952334202582,0.9941871554227617,-0.014731846361511891,0.004143015498643619,0.010872636498202425
0.88,-0.03998303460965101,0.010396367039501916,0.2448797852451131,0.0012100840525101925,0.012730764457229581,-0.022810279979408467
0.89,-0.027101024477549085,0.015184657924807837,0.2229796394352805,-0.003919014612995705,0.0050131701215394096,0.002925218928696579
0.9,-0.04352364653867203,0.009511757137204228,0.21876019620125056,-0.012872849743458967,0.011926928814249636,-0.004266375030369445
0.91,-0.05641416658074615,0.003273974376268189,0.1791920165902598,-0.005840179987860122,0.0050701172768016275,0.002881433829932983
0.92,-0.03198301153155859,0.03603005338684686,0.30495133717413136,-0.009185587025713088,-0.01290122398837331,-0.006814624220644633
0.93,-0.04539083160886922,0.01811573093497947,0.26394343741128995,0.012571841457248711,0.011284296708175937,0.003478748155443302
0.94,-0.03800378455635015,0.011451437933235524,0.23798260705268573,-0.0026825004111133447,0.00416283656337392,0.007615254521552607
0.95,-0.038313529979697815,0.012556952922808591,0.22009518596695424,-0.014095541107724117,-0.0091772915108143,0.0009925181176238447
0.96,-0.032750044555923306,0.023698040611101097,0.19691144021681323,-0.008538755597916108,0.03335196891610863,-0.008217540748282142
0.97,-0.04496589829520454,0.020793743014344796,0.3157067074903146,-0.020906882126555684,-0.006104771503830091,-0.0008707518581852485
0.98,-0.04770845784788889,0.025935851015783315,0.26631944391194273,0.002495693220027474,0.00032588584292795285,0.008101216063060432
0.99,-0.03333299125783747,0.03723448526606866,0.23449355064535735,-0.004942775562286016,0.001451677918062562,-0.0010907677607243241
1.0,-0.03484741497381357,0.018152314413003943,0.19711518412707368,-0.023892449385953474,0.0016440075368885964,0.0036509780374722606
1.01,-0.032640990614133725,0.025164155932117994,0.21057295808965631,-0.007388654372218739,0.0030088428099478556,0.012174703459643412
1.02,-0.047134581959706545,0.051605924672519524,0.30349984887254955,0.002893831615928804,0.007401254615135128,0.001747690168349316
1.03,-0.048187864704005184,0.03872787489174025,0.25062154554006416,0.010344010057401508,0.010020585986622097,0.01660101137773275
1.04,-0.05286492178065286,0.023844945393490864,0.23088254806062522,-0.005468442186573412,0.011417923776726197,-0.008858549913522055
1.05,-0.029408123315140457,0.011411341830405316,-0.040881520356800094,-0.00608578802732959,-0.0023737722198291893,0.0071757996892683265
1.06,-0.04484542193626018,0.046118131611880206,0.19961019184632786,0.0013134615813321605,0.016798209266040455,0.016953913498951027
1.07,-0.04239248253287203,0.026980818776069795,0.2995133234559275,-0.024858164629647066,0.004014271235788052,-0.006458671665671202
1.08,-0.050676549384548096,0.033544055821107505,0.25038561116035724,-0.004916295028259863,0.014041375747065137,-0.006290342121017536
1.09,-0.029287449486439455,0.03810696545447771,0.24955824531083187,-0.0244113044839306,0.014078377979004467,0.004878645168711758
1.1,-0.02720928358058559,0.032020831337187285,0.1978865853901862,-0.023904839780970556,0.004776684088036757,0.004373323822490242
1.11,-0.039575470390022294,0.03126988240868676,0.1819191620003809,-0.016306382779806238,0.01198475832859494,0.0015337196735153305
1.12,-0.0412181841724141,0.02710478839114113,0.29614423631787107,-0.02262482349523471,0.013640507194435578,0.01214060292947112
1.13,-0.061360102650296,0.060713321401845016,0.2664038992537574,-0.022105449900246557,0.028762846845449004,-0.0031994861622971836
1.14,-0.03257219993336352,0.03930710147311974,0.23015655368515683,-0.028468792477681075,-0.00963907831545327,-0.010857391204757995
1.15,-0.0451268491927582,0.03977032854404751,0.16948401699317656,-0.014096255357309264,-0.008998462146496626,0.007357698210561224
1.16,-0.05215413993457542,0.061505251545647996,1.024987177283698,-0.011026093455911398,0.01635573232558557,0.0011657302760008327
1.17,-0.0541840614827151,0.03713526248979017,0.2325498690177574,-0.009287141979426672,0.026146531882771145,0.01683744285010393
1.18,-0.03898136662959215,0.042778579682035536,0.19010342742463848,-0.0004939338518608304,-0.01000545345184705,-0.0028143123906726256
1.19,-0.0655305858856853,0.058204814780690554,-0.027088985653372546,-0.013899758787415405,0.02195292899161709,-0.00707837814228728
1.2,-0.06837668906703885,0.04859419330735102,0.16661163294969525,-0.01260031135241949,-6.378186690114349e-06,0.00012523238673200782
1.21,-0.07035583331729706,0.03251873695779213,0.15632508919108892,-0.020903145207958385,0.003861742816899022,-0.013458453129142327
1.22,-0.07724455805349145,0.028320405410093487,0.23673115646294338,-0.014462245403494911,0.013808464531414768,-0.018128142780130495
1.23,-0.045793412766295755,0.03158633677531113,0.24304178023209577,-0.020702872582025918,0.014090026009133123,0.004269714828368156
1.24,-0.06545984078097516,0.031021720823446793,0.16712334898818623,-0.0025096869560475516,0.005283581255001681,-0.016348527043645873
1.25,-0.05417815326593557,0.038457539260566595,0.1648327434682089,-0.0215272036552872,0.017462397494896132,-0.00639363060678985
1.26,-0.053275362416617345,0.061612476717148305,0.14400531188092056,-0.0006335340573500516,0.021721885401095493,-0.013769900256169684
1.27,-0.058156129594981114,0.06583393436279229,0.24309255478891298,-0.022072596369503844,0.024958687868481384,-0.009265459440759303
1.28,-0.06883344896977266,0.05754727250925384,0.20895282880905267,-0.005657477158566979,0.010097086310266214,-0.006622123463356931
1.29,-0.0760940056859068,0.05082182303916876,0.18297498017023858,-0.016113592891872353,0.025817958404718906,-0.011559224540137747
1.3,-0.060248226522519016,0.06352050923872593,0.16427554831273902,0.017555109673691855,0.007200452778226129,-0.023621584772937104
1.31,-0.0737131831933956,0.061337659281538524,0.140920974082836,-0.014005390071375698,0.009059242625023384,0.0046976321714316035
1.32,-0.05939592759587631,0.06701707327523337,-0.6951852490121566,-0.0007042264327052788,0.02119073293987191,0.00479614118623419
1.33,-0.06877841658141642,0.06657009515939948,0.25244941475374244,0.005525531896419468,0.008964703243742933,0.005782311738155348
1.34,-0.06501805251881804,0.04767574233011081,0.21796408460779834,-0.006486993653456235,0.01575759754143946,-0.004063976134503244
1.35,-0.07966598549294929,0.07468317753749408,0.1770556246598621,0.007125278725320782,-0.01718981349070617,-0.007878275447784551
1.36,-0.09496526437162578,0.06032649911678942,0.16601732131837701,-0.00945128695115444,-0.0090529686410218,-0.003961909529576305
1.37,-0.07339566287889882,0.056757313427263284,0.003697500594985675,-0.015580151998383359,0.004038922592312766,-0.01517083767520174
1.38,-0.06779211010377989,0.04715846262165035,0.2418461443699911,0.00692785073671724,-0.005821700140086469,0.011722147323387232
1.39,-0.06837036160399595,0.059276751014950876,0.1992025342121575,0.01110838290121512,0.008759243272717546,0.0075890374584000435
1.4,-0.08488199602751391,0.07545324285205605,0.9756803373854497,-0.008070577298663511,0.002350073057679771,0.005312270287017116
1.41,-0.07133428048502953,0.06979437997036955,0.08835910366860014,0.002787807793199977,0.026786512171054273,-0.006313895257853423
1.42,-0.08514291834086563,0.07712407097094576,0.20587498561040385,-0.020554100982903487,0.003097284120068452,-0.020455920902577657
1.43,-0.07448183502752555,0.07426071275631167,0.16164189557877345,-0.013603492744387269,0.007551926394470268,-0.003566550771619185
1.44,-0.0685717591976065,0.06399550263799234,0.8774000756630128,0.007661687226325471,0.0075149719811598735,0.00354573653363152
1.45,-0.08329825228899022,0.06281361471272433,0.09733819435355036,-0.0013383412308877168,0.026954988201637248,-0.0064729082226025175
1.46,-0.06220864725089341,0.06107698967795191,0.08254573948133019,-0.015144536568698488,0.006220269817357098,-0.0009502203608149412
1.47,-0.10023528188509026,0.0586322430272388,0.1830088884667971,-0.011724446718939172,0.00990597681630584,0.0028967800199669095
1.48,-0.07520012982130161,0.05436407636450913,0.14941021737115595,0.0013149091387947391,0.010327446074951582,-0.01363135033953047
1.49,-0.09807990247507081,0.05152243352019849,0.1160173252476456,0.005247061209352397,0.007113066851962424,0.00415526601799125
1.5,-0.0756827568986352,0.07652381387980983,0.10223459920056852,0.005790126665834458,0.021415467820094108,-0.011551806077026897
1.51,-0.08313142258471054,0.07699760552146553,0.0753386216981102,-0.012476694242078857,0.008111364243632237,0.005808165331982606
1.52,-0.07993135921286677,0.06419203979738144,0.19107439568274565,-0.001921055729870662,0.014968200951651162,-0.005369378953733781
1.53,-0.08498448786839355,0.0588416770691648,0.17507813053729604,0.0027250558129943434,0.004173347129325803,-0.006637309499790863
1.54,-0.08570726304548086,0.08326371362651219,0.13039662616471448,-0.010100442319194984,0.002410600166802706,0.0014461600829595383
1.55,-0.07776401638852748,0.0802509655484059,0.12119789750567628,-0.009342806129595243,0.035497880675601924,0.002753410069692015
1.56,-0.08134902223121486,0.06062943921827371,0.07805875800961143,-0.019187680520047053,0.0160286245945599,-0.013450842448650949
1.57,-0.10232977577972344,0.06449662398044348,0.17124019862923043,-0.027091297896997837,0.018420139300807613,0.003298182792160787
1.58,-0.08662163685008713,0.0640112829240175,0.13971300156787736,0.006787430799347648,0.01981933168010525,-0.006820349530685523
1.59,-0.1106931102557248,0.05845832544740539,0.1210645305387652,-0.014416428513745246,0.014574709147816394,0.010768312501765905
1.6,-0.09709531274519491,0.06438988344169863,0.10027521479035001,-0.016402878319832483,-0.003574312233062253,-0.009584885240243314
1.61,-0.10104054745596794,0.05498407546997164,0.07063661664220734,-0.014044351915556568,0.013339161518758576,0.012026541271696035
1.62,-0.10223553947093153,0.06694482701912127,0.18303806863036026,-0.019641231338893984,0.016710232344272335,-0.016057369115913975
1.63,-0.09887614871916808,0.07396945500405722,0.1353684643029849,-0.01544363652078777,0.029922660215384582,-0.0069197786056939044
1.64,-0.09017166499053153,0.0816183896028615,0.10781037518588504,-0.007915087372934866,0.0005778073056579673,0.00455623392272209
1.65,-0.1069079140470332,0.06821160815555,0.07543808110786956,-0.02039191098509133,-0.0018514568810870345,-0.008664178589799815
1.66,-0.10788748190789438,0.07835564386476813,0.06305580529248507,-0.0013144143617335735,0.02065919915675127,-0.0019545604888622304
1.67,-0.09099479202973751,0.0725623005272795,0.2182036675088204,-0.014913806021910657,0.0023633939591344265,0.0038627583954331237
1.68,-0.10940671936542316,0.07610963115262384,0.13101935805189283,0.0030476982159867473,0.026947627106992687,-0.0036691188334300145
1.69,-0.1086306091154502,0.06925129879978714,0.1093296002983936,0.006917810055877683,0.04802835912787347,-0.00012714688763169234
1.7,-0.09673631849450173,0.09302968588357295,0.08701386776601922,-0.00537813572115462,0.02443404705246513,0.003869814066499334
1.71,-0.11313986578015447,0.09552812370582886,0.04513862351075021,-0.0006310222486205653,0.020310839493272417,0.0091578731882902
1.72,-0.11465792578237041,0.08033515890462684,0.17307041455052452,0.0017506910388255335,0.02772597507007943,0.025280939653107147
1.73,-0.12877856174043578,0.08969851514073414,0.12559875997574035,0.019379925111695416,0.02965004500881864,-0.0009573403067249736
1.74,-0.11647554206396281,0.08311488600833809,0.0890709341464328,0.0019194337516949306,0.03518284627248784,-0.008213842616701439
1.75,-0.13431436995404988,0.0728466124817106,0.07038320879506167,-0.009304307487821618,0.0176148376410402,-0.003132081764411789
1.76,-0.12544886836735952,0.09749005751820866,0.06033589571291055,-0.011968984170982144,0.01956230823867674,-0.007749383314211394
1.77,-0.12657960860728912,0.08787704744004063,0.1496418369601161,0.008099137972942101,0.012921244729260803,0.00677062523542217
1.78,-0.140140155870049,0.07480004180930487,0.12474387701106655,0.008150382556092373,0.029915132805406443,-0.02135297210916744
1.79,-0.14463625382379655,0.08110554013296237,0.08464650880922753,0.010020310152761195,0.012234887657171997,0.006290735088802846
1.8,-0.14164906863293178,0.09608338948614167,0.6808532047690037,-0.011530595669413926,0.02210525075744568,-0.010314532923702123
1.81,-0.12240263066403356,0.08775382112893533,0.0038697634773571183,0.02149633419021374,0.00928913877349941,0.013873554860854677
1.82,-0.14418958454275813,0.09107450988070535,0.10867424879425266,0.005709449432893607,0.007665958928546986,-0.0023299243479324855
1.83,-0.14511233292006895,0.08964646494845314,0.8448393512965617,-0.0016357496462972888,0.01731302210741635,0.013745286654993742
1.84,-0.13990541438141463,0.09556076564325383,0.00740947679543358,0.0061658292108138744,0.02393066008552967,-0.0006783584105613341
1.85,-0.17768304159866255,0.05752826056533556,-0.010382449578508993,0.004763270567297138,0.0009704728990156571,-0.004075100129585309
1.86,-0.13665863046395105,0.09836753123188721,-0.009146543539888684,0.00041333588632484243,0.03979368301359128,-0.0009545594853965136
1.87,-0.14218516765797123,0.08683040942730622,0.0997064795221582,-0.008256254567227866,0.03051623913393796,0.005810724760959225
1.88,-0.15140424642869815,0.0854146615682789,0.07835589790364968,-0.00993918893574489,0.005643019692819931,-0.01464390149048915
1.89,-0.13180117525420296,0.08241646142148502,0.04136737812646144,-0.005741101011934987,0.03756419964663342,-0.008055578866483178
1.9,-0.1612757432342336,0.09357587485044411,0.1083088266034852,-0.011747358009953128,0.032540809630369386,-0.01021159911299006
1.91,-0.15527710737348355,0.08464117499874618,-0.013707860402571811,-0.007059195306508765,0.014532542342156285,-0.01158273775357841
1.92,-0.15697945270896269,0.09888193716918965,0.09613476170324407,0.0017363963312627025,0.013097217538685159,-0.01531326044729064
1.93,-0.1668918237516549,0.08117596514243222,0.057437291260886134,-0.013258816469463539,0.015310075630725707,-0.01145017809624631
1.94,-0.17331937947349624,0.07790754207133732,0.02851772538797117,0.0024105223432436575,0.009887776194265525,-0.015160281390686465
1.95,-0.15914123908032307,0.08199260675040262,-0.004818475460582682,-0.015238439236028686,0.03411213905463782,-0.0019719461410006803
1.96,-0.1588723702602436,0.09037003174162435,-0.008135859896958038,-0.024431960622667094,0.03508006111050754,-0.0007289089614122678
1.97,-0.16669080117510424,0.07365052990144612,0.0926919185787715,0.0033732008754621193,0.012658479624075816,-0.012652815964774113
1.98,-0.16346474607539804,0.09826454897981284,0.2908855265797166,-0.004676714572541778,0.012221697448323307,-0.009514799564254686
1.99,-0.1689952684105992,0.10355595174400245,0.01128744157216878,-0.017268625022090894,0.011083818268960401,-0.005017440833541185
2.0,-0.15759669013086017,0.0965762556421314,0.0015858002098770652,0.0011086683460226378,0.025321864610370955,-0.003242416892071388
2.01,-0.16032168125151472,0.09740489840736755,-0.00964585110621354,-1.6219792934330651e-06,0.0226721423890539,-0.008007064700645144
2.02,-0.18284699989433537,0.0980174097802261,0.07060508751799584,-0.024687533783880007,0.021007959221426294,0.0027877530026620603
2.03,-0.18984884741061941,0.10226574991620799,0.04445716891006188,0.0017738514902321846,-0.0050692523016480605,0.005982633052817855
2.04,-0.1960803173507278,0.10146347694797375,0.020884981086336137,-0.008113908462406805,0.023665916939224013,0.010322498769375932
2.05,-0.18916975256760474,0.09681305859843493,0.3639754710445315,-0.01925255604364442,0.0007074403124574229,-0.008367562642197311
2.06,-0.18286148511232056,0.10168017314292854,-0.037566922310083066,-0.005224667655953007,0.02200292921857002,0.0004475389418821252
2.07,-0.1769986735686908,0.09163193535937199,0.10035744759893239,-0.024961708048614393,0.015421677533381297,-6.309953613972414e-05
2.08,-0.1858133851375513,0.09428968106943061,0.04353258759775994,-0.011495784841712398,0.011871361199096877,0.025117662272552035
2.09,-0.2080060549740253,0.08483758751599227,0.004669092042758223,0.0037459602595791234,-0.0045034561909254225,0.0068385515861015215
2.1,-0.16639156317948167,0.10372818959414057,-0.005900633938587624,0.006013377006913642,0.007140571794276872,0.02866816446155827
2.11,-0.1893470892977539,0.09142128111701012,-0.02111909099799921,0.008186527068262542,0.010312517608455073,0.007094017221039309
2.12,-0.19762922837569036,0.11822422775624658,0.3852926304522239,0.0005676451653787822,0.01030319633450992,-0.0004671304817480317
2.13,-0.1908391937808378,0.10232063333342532,0.016943841118510605,-0.033462610133601176,0.008350616992003672,0.01720707568966957
2.14,-0.18422999249347416,0.10683404022697582,-0.002736073772432731,-0.011485331691719565,0.009227662013007632,0.00982510871521921
2.15,-0.19129922933349883,0.10864014419875732,-0.029583435610681795,-0.008893916462434983,0.0108787134235348,0.0110109723148896
2.16,-0.19794237129921466,0.1058372867723095,-0.05101693111223271,-0.009243899837104998,0.001287185148688405,0.004816022898644086
2.17,-0.19542428629756536,0.11601246340732382,0.06682196815589321,-0.006583451649382033,0.010384148963255124,0.0025254715492371476
2.18,-0.2059545246111094,0.10287108887848297,0.02360025398019064,-0.0019146966163777965,0.014821101257100223,0.006003630119364693
2.19,-0.19780857760494636,0.10410424412452579,0.010668783866612923,0.0059187963259031764,0.0010863063284519353,0.004104173096174762
2.2,-0.19122868733743575,0.1139664376627523,-0.015685482926789673,-0.021220935454765916,0.0022670566763773404,0.0010370291007433144
2.21,-0.17870895683414004,0.10148475267155566,-0.04485269535375209,-0.024256171375344363,0.020285717019378254,0.0037549531067549292
2.22,-0.1976468461733085,0.0989651695796539,0.05170430425765844,-0.031130975028408434,0.012954012855405834,0.014801994335729145
2.23,-0.19564995443125544,0.10185019991273722,0.02078192597551899,-0.014475055746098473,-0.002982635700785741,0.017619301100617612
2.24,-0.21346881589913827,0.11382196815549243,0.10307349950328056,-0.03526830654338914,0.0016797582647571805,0.0016982864637743375
2.25,-0.188446720461835,0.1133957031728113,-0.029460825245407014,-0.017378668710232515,0.02496353193688377,-0.004094188049879828
2.26,-0.1930791858582524,0.12243743051963654,-0.04725380784200399,-0.019343041675415406,0.027184787577340178,0.014467723751227686
2.27,-0.2002358821382144,0.09858423859731123,0.056599796733986324,-0.015489539087907298,0.011055080926008817,0.0044860055938486685
2.28,-0.20937779426100742,0.13373920169877102,0.020239136213091733,-0.01157172103178756,0.011839824167339743,0.01124203047390835
2.29,-0.2129050845900306,0.11623503131105768,0.0037689541643633855,-0.03309075780154032,-0.004308181354979648,0.0012247724050167249
2.3,-0.201078812959795,0.13102784137212956,-0.02573684023822482,-0.01115660814691189,0.0005409331188502963,-0.0013356085265226452
2.31,-0.19425680581714677,0.12895318645694798,-0.04323883597067328,-0.017632163356947336,0.019886182748685862,0.008441985081299223
2.32,-0.194597585528258,0.1409880829868187,0.05149272116082526,-0.006563866521145601,-0.0009002977030899374,0.00791984220071885
2.33,-0.21247591730946241,0.13321381860890266,0.030112574390436183,-0.009673862705893075,0.00952590807302895,-0.006568553057659706
2.34,-0.2251949111535377,0.1354976688295645,-0.003883497711839918,-0.015068784504244993,0.011692314389926583,-0.0031140875178886397
2.35,-0.20381059547693878,0.12478549435086728,-0.028458663743923206,0.0046862092972293976,0.0018241291149407634,0.003222321435096629
2.36,-0.21904736155076304,0.12744799094628967,-0.05414237121885283,-0.01840736440204223,0.0013383827688199217,0.009987702221644496
2.37,-0.1979259901085877,0.13370026103937482,0.06141656644114639,-0.0005511740926266492,0.006346982598098807,-0.019341115545742752
2.38,-0.21198324074314034,0.13310817273391448,0.006120261101311676,-0.009689635569728034,0.010085553270562266,-0.0020368164462912924
2.39,-0.20523729608943608,0.13110687718944336,-0.01691435632878957,0.012679788785465393,0.02649914728691798,-0.0068051050770798005
2.4,-0.21021361050581705,0.14540788010550346,-0.025813855848474034,-0.003885396520754135,0.012142430811118612,-0.0009186168135689985
2.41,-0.21548369882926205,0.1477754411519551,0.36287655131548074,0.004451857113176177,0.023114596773159815,-0.0014289172920268615
2.42,-0.19101289198080695,0.12840656752090981,0.029281993217993997,-0.018971220049362456,0.008759999796796803,0.005140886597696561
2.43,-0.22841122403276917,0.13951690656471474,0.0022755060615204563,-0.010783620865515557,0.00454751140570729,-0.01850442288948998
2.44,-0.22150373843380972,0.14577542152038528,-0.01340784051138897,-0.008359867689266458,-0.003668156659742282,-0.007088822600372188
2.45,-0.19728716184945402,0.15326148907134451,-0.03848547146793038,-0.017643517104883485,-0.016399147207926,-0.006061963444028519
2.46,-0.2087949326898037,0.130476687968265,-0.06704572641060058,-0.03257683043584057,0.016735785117468975,-0.0016519074637671703
2.47,-0.22747417104993772,0.13727205870658016,0.03322264309836923,-0.01726354220875268,0.0004057342849426468,-0.00942623273682969
2.48,-0.21500676677719027,0.13236225061960932,0.02917219218922207,-0.016884228824218462,-0.012395064555062982,0.014311187044823277
2.49,-0.20929371345045708,0.13271619252263164,-0.002625873865611172,-0.01374548095603385,0.006680633431057068,0.009237864862129914
2.5,-0.21630612771082036,0.12803927156919787,-0.5241721906182437,-0.012066653688449296,0.005860085849261611,-0.016126361953334153
2.51,-0.21243085585358498,0.13775561196883693,-0.023060961480551135,-0.02697753240320902,0.014633348608230606,0.0006249667369336526
2.52,-0.2044429723707253,0.14508701582495304,0.06338393788349364,-0.013663011020007325,-0.013096017911534188,-0.013955127758521495
2.53,-0.2209708371637639,0.13158422522777452,0.02563356345391446,-0.020006228644208326,0.006747968319282543,0.014093206251634592
2.54,-0.22743563394961977,0.13551046077509224,0.004596125855218939,-0.0036798522214378307,0.0064045653391478505,-0.014423197550459649
2.55,-0.21309725992288595,0.14706089120253768,-0.008128588677365198,-0.02068234629517811,-0.0009815073875325002,-0.009443578899704298
2.56,-0.22355253652447524,0.1484749138798854,-0.04910504004195773,-0.02502378699030544,0.016323681285215247,0.009410790495916877
2.57,-0.22206565189896846,0.14230414787830903,0.05230452311744372,-0.004882181901334843,0.012229839156405712,-0.005951473722981429
2.58,-0.2165766859932579,0.1508712779669892,0.5969742665524713,-0.017045631959468295,-0.015884664979995942,0.003076139750482239
2.59,-0.2243577062303842,0.16923334691578465,-0.04919448656885489,-0.0015870269522829565,0.0038757972845990334,0.015550581674547972
2.6,-0.22201644680979266,0.13763467174875563,-0.060147726032807006,-0.0005519062318910814,-0.0019389336016135284,0.0015757966675364506
2.61,-0.21637487721630144,0.17745268227335498,-0.09474959387833344,-0.009952799695239876,0.005314259456252343,0.005165697719428941
2.62,-0.2302290160481493,0.1544818697524044,0.03593454221708751,-0.003878954609533333,0.007977644263895845,-0.0021341023837141006
2.63,-0.22366987276947942,0.15666690710703374,0.0031039967348205134,-0.010259588056795641,0.014160461024954381,-0.01357338918960564
2.64,-0.22592712961715644,0.16186873482620864,-0.03463288090533771,-0.015794452632169897,0.00247627132310725,0.002833976946310479
2.65,-0.22910234321954434,0.15287300502618975,-0.10737474533505749,-0.02121057346981151,0.004824147371473729,-0.018291823703651358
2.66,-0.2108608599178812,0.1685501425323438,-0.04458438778086193,-0.006979038191364688,-0.003250055964105523,-0.0004261593332148202
2.67,-0.2325273746823478,0.16874362243675795,0.16316335556814343,0.0006645901153421452,0.0006800362912438599,-0.00759501663614746
2.68,-0.22525101918216586,0.18174186772147127,-0.007486890873599494,-0.01027037892852593,-0.008074078379065347,-0.00348796627861308
2.69,-0.2214243330669733,0.15938712478832043,-0.02415550829726144,-0.002233861118976828,-0.012288664285954607,-0.022698535634154405
2.7,-0.20917503217791789,0.17845363470268855,-0.05902411668762005,-0.010796267490703046,0.0027414072419026164,-0.008031138236841257
2.71,-0.22618127707973434,0.16632942113780078,-0.05856283013522706,0.003048425123765173,-0.009855629213918476,-0.006843196914470906
2.72,-0.2185417364916556,0.1707384164883782,0.031817418538682106,0.00045145694032748627,-0.008341507384372473,-0.0005115584099987464
2.73,-0.2378915631368132,0.16635543658848737,0.01060489310190929,0.003781104726420798,-0.0008116670142708201,-0.002117255602865937
2.74,-0.21751283966277868,0.17640452963947775,-0.009540756866012613,0.0010040374427526405,-0.008393307061808948,0.012379997067089855
2.75,-0.22086910982868554,0.16430543448218482,-0.05046436407549848,0.002646268536893742,0.007842807306482347,-0.005574188950134432
2.76,-0.2327297419135828,0.1722658657066793,-0.05425166187358939,0.004021300370944884,0.004523444475002926,-0.007444082062437451
2.77,-0.2228733291563969,0.18100684447310442,0.03766685426203016,0.00417282109857309,0.0154805167299562,-0.02203244136845638
2.78,-0.22817951348296903,0.15919846246237834,0.0203385175525944,0.003032222128242455,0.010022847408329934,0.002818141355702398
2.79,-0.2083849680514051,0.16691361313882425,-0.0334539654893592,-0.0024583649409620034,-0.014094791445405791,-0.014643122540302669
2.8,-0.2233584178675357,0.1679473718493773,-0.04459357869508278,0.010043257491946036,0.0007152376756025093,-0.004113397730461899
2.81,-0.24452986850048822,0.1736118426464508,0.10174454531843638,-0.001261255498615383,0.01547940429672092,0.009706686916030383
2.82,-0.23048179018557438,0.15614073140958412,0.032834244618704635,-0.007732031086737185,0.016368061699911347,-0.010083354120917182
2.83,-0.22460144027487391,0.14793260995615148,0.006017646796911741,0.014751344849851439,-0.008066797642965445,-0.0096295379551739
2.84,-0.20626726103166357,0.1728228484200812,-0.025698231631461194,0.007453152011296007,-0.002933997301704525,0.0016754556891825935
2.85,-0.2165873857857971,0.14864862310795346,-0.2460531226344393,-0.011662756534188847,0.005882718929487547,-0.01398167387654919
2.86,-0.22705651543949162,0.17133068295108056,-0.05717057716897691,-3.114851498084328e-05,0.024214266704694683,0.004807518956727591
2.87,-0.22152886429982085,0.14469410911678865,0.051901663423402654,0.0024659178515652226,0.017382944398048474,-0.011901803246125869
2.88,-0.23345524260234216,0.1782079545872528,0.010664873307975735,-0.024719533919435932,0.008130198361403594,0.007855224453003086
2.89,-0.23175219669477307,0.16699366895380618,-0.0186553208678083,0.010697659019889779,-0.0026620176844783143,-0.0040949225241592845
2.9,-0.2350827640272029,0.15544264699501747,-0.02967415997057146,0.0007836582318698176,0.008201584196233196,0.006460990546709719
2.91,-0.24716772898276135,0.1823492821278329,-0.054381247890069456,-0.0065759430054021396,0.020957916046500227,-0.009808160665005958
2.92,-0.2220318590988553,0.1724165494341004,0.03203013183965646,0.007481510468480298,0.007626789992060347,-0.006179012648779193
2.93,-0.21351589922642583,0.1700903700777751,0.009116636209817987,0.007908020365421388,0.004342100572513145,0.006520065161517136
2.94,-0.22744675489255428,0.15633427329086205,-0.013315545815518451,0.010407399186041812,0.0013796134755046851,-0.003361681704482601
2.95,-0.22730522079502755,0.1584067956240799,-0.047276314403679603,0.004286972024246974,-0.005757739625504025,-0.007667412002663451
2.96,-0.2232403970720307,0.16171248886208714,-0.0716355692087052,0.006049755751468699,0.01763362348545173,0.007096437137754848
2.97,-0.2538325147511277,0.16588940107015382,0.04353167444191375,0.005998713691555454,0.013179953118336543,-0.00821258250731633
2.98,-0.22950923073478027,0.1450902013249989,0.01611961751602932,-0.017234289016683214,-0.0066145688460406684,-0.01569008623393248
2.99,-0.24284430087096678,0.1441792902131678,-0.013017490008031339,-0.0037831944407015292,-0.015971504890182772,-0.0023158202788747455
3.0,-0.26033248761079875,0.1799464113453755,0.8042199414485162,0.0027599091264914437,0.020794396851672822,-0.009120376860734847
3.01,-0.22123820835203117,0.15440241493538182,-0.09679844118722668,-0.02971830703268527,0.009169918901064049,0.006333356844732058
3.02,-0.24275191665473767,0.18924267165101058,-0.009557369575456423,-0.006207144586050005,-0.007089744654166657,-0.003336566236935771
3.03,-0.2421016600061707,0.15597468144384222,-0.019471555075016217,-0.010687149891066453,0.01136441573370771,-0.019032292411735784
3.04,-0.2508860267905302,0.16414361087193316,-0.06298725552644358,0.0059737689278539195,0.00356833505814313,-0.005363591790639308
3.05,-0.24429892067159573,0.18031270568441846,-0.19391305805526954,0.01852386454168906,8.229210591003647e-05,0.0018215912629397086
3.06,-0.2364325786904985,0.17900097508404272,-0.08977178301171353,-0.0014262041151057508,0.002887707393809674,0.00018699341524665031
3.07,-0.24662664741534485,0.17390320747013766,0.036358352530110695,0.0059277329417891204,0.014858767904889228,-0.0059554747399498485
3.08,-0.23439746735934466,0.1650523904395095,-0.013836169352784353,0.0027501077002309356,0.0028108060714126084,0.019116214533652344
3.09,-0.23267930463083739,0.1673102636954872,-0.04624674182158582,0.004026072309509643,0.0005089189578835864,0.003139710337575115
3.1,-0.2515648820759574,0.17201917038152492,-0.03956763677818857,-0.011602975337953535,-0.011399632212579927,-0.001570952298802632
3.11,-0.23023827117742862,0.14870224357925485,-0.07603932265300757,-0.005540517671013037,-0.0069197770556211746,-0.0001029337265736419
3.12,-0.2503919879326214,0.16841481587388996,0.03864543360896831,-0.0034833995127647828,-0.008676894930297004,0.004727828528719685
3.13,-0.2397754269647756,0.1511667349055843,-0.004712901132961778,-0.0012993580376476149,-0.009371847001877024,0.007097358797923141
3.14,-0.2552749254234296,0.15138464710047594,-0.04883186138765816,-0.0047915396843558776,-0.007057192201536012,0.0022871821839060844
3.15,-0.23259426972472808,0.1804056898642615,-0.05868696830507712,0.0034931184575407734,0.00843316287575938,0.0021357024581305823
3.16,-0.2317425808761202,0.17747254142257265,-0.06416203754566799,-0.003236688974252628,-0.01633460379556264,0.016408572911321966
3.17,-0.22710836436271256,0.15656825425929033,0.0245941347762495,-0.003967729280577319,-0.005085202227361122,0.015783183536814464
3.18,-0.23775452970217797,0.18229157658702916,-0.07511478352229406,-0.010906830339786618,0.020769638574880008,0.010734030639395471
3.19,-0.23473821885177545,0.16063799934372694,-0.02258232837449562,-0.012254589417941867,-0.007351626428400357,0.025122492682990792
3.2,-0.2390932849480164,0.17746611756114744,0.031240157257153248,0.008181587172361424,-0.006559674949838221,0.014459171281537436
3.21,-0.22622157836083548,0.1755274314488414,-0.4348486363047459,-0.003003195800232836,-0.0028257570206536896,-0.009109678123981023
3.22,-0.2331970644965842,0.18424200723294326,0.16517403509010975,-0.027572092434891286,-0.0060670303217772985,0.008554393150339259
3.23,-0.231832753970563,0.16269338164938404,0.007199608149029286,-0.014979190003591644,-0.0021750237126956055,0.002604386999113476
3.24,-0.24267727969729094,0.16831201272964036,-0.02639300450727127,-0.0031195705211176958,-0.02231298004850772,0.016156327978098614
3.25,-0.23442594483235324,0.17632711576159307,-0.0514346449150699,-0.011115146071683036,-0.013578869302638151,0.0038597789133039823
3.26,-0.24914566095358073,0.18467577567785842,-0.04716219946248093,-0.012609258487509361,-0.011441473566977972,0.027135993337584208
3.27,-0.2184683116721435,0.18205507192792164,0.03600137890262949,-0.008657396849811492,0.01923008417490411,0.025318653105719593
3.28,-0.224437132776012,0.18359918703486278,-0.39385707336887377,-0.02020920520686305,-0.001282993489243641,0.028883734402156375
3.29,-0.25050895689583386,0.19390007708278464,0.39934367834250073,0.019798996737832274,-0.007170366220692802,0.008851007424546909
3.3,-0.21335881036733698,0.1863353394353639,-0.2068158036781979,-0.001346153081908677,-0.007768147619433075,0.021996050056258327
3.31,-0.23347263419205586,0.16567617844615234,-0.06540562972657447,0.007616221120340444,0.016555839110240063,0.012851295898949275
3.32,-0.22197869945188403,0.18682498577544,0.031675583997972226,9.941502897670975e-05,-0.005822701158699244,0.01662650855199789
3.33,-0.22898741052748106,0.19015950650270044,0.010091699390461869,0.011571643177911834,0.01805511960312378,0.025564368228324627
3.34,-0.23408346072346348,0.17401237930191307,-0.052255637105596144,0.008489331544361621,0.01210367920743936,0.0008408470654431531
3.35,-0.2060443235512973,0.16483577962220228,-0.6936235626427446,-0.006065300898010776,0.01749796268541709,0.020271643074400884
3.36,-0.231141958499398,0.16631762583472837,-0.022841466762764384,0.0021916703124587864,0.0019134120510069866,0.006961341739766169
3.37,-0.23644552003705183,0.17905715445581435,0.0706784930920303,0.02046579116493702,0.018406837296720973,0.004682929173653667
3.38,-0.23211516800713206,0.17713079360673029,0.03328554163621669,0.01518969673090239,0.0021514698451862505,-0.0016287546879732145
3.39,-0.2194168093122929,0.18701559437538787,0.005410546174703327,0.019308464196893978,0.00530058168522601,0.001902880095990325
3.4,-0.23591981723801816,0.17781163220997834,-0.03413979740382436,0.02380601175000669,0.009975570834824012,-0.013361846179367524
3.41,-0.22912005780375783,0.18085402191003216,-0.06004213867744988,0.01037825403098926,0.02599238298288005,0.011349524042129192
3.42,-0.24128081525486395,0.17686576446926558,-0.12230905527441878,-0.003664352029583465,-0.0005820146434677501,-0.00835685928567788
3.43,-0.23600537798272353,0.15831546156631857,0.02925146136986525,0.01949946740018351,0.011639667958512859,-0.018995047431094002
3.44,-0.24975688104202168,0.1749122360236303,0.06202775977988719,0.004782396070596397,0.03407406668950866,-0.005967236113676038
3.45,-0.2600726160753133,0.15889109697507858,0.12739167117533984,0.024300399309935626,0.01545945957475041,-0.011446697516624154
3.46,-0.24643290686898725,0.16972420307906821,-0.044927515722336206,0.020289457301072726,0.011472420824761919,-0.016716082917953207
3.47,-0.2572602837509448,0.17532897532750602,0.041185507370658285,0.013056291725150333,-0.0007509644381038065,-0.01941624035521792
3.48,-0.2517335006532134,0.1626750838407129,0.016968611833704687,0.011201599982002954,0.012130942351838732,0.008961884486924664
3.49,-0.23286440529940328,0.1557630542541292,-0.013110218718713812,0.02736348819850519,0.027630732532304345,-0.016582713256418226
3.5,-0.24348261841568264,0.1497187718515272,-0.04689763779975609,0.010152343281660283,0.032607462624184985,0.008376779078472655
3.51,-0.2683311657068574,0.18048639905424013,0.9109544059009823,-0.0030994639257538627,0.007553426468664803,0.005255874590008116
3.52,-0.2466360254428088,0.14762670230096117,-0.25985847694732234,0.013156819608699133,0.006411452044877435,0.005851351989148443
3.53,-0.25406432129779144,0.17491677296974542,-0.029322080994481137,0.020552413484144584,0.027234692944488485,-0.01061309769518132
3.54,-0.26260782639398955,0.17256117412250493,-0.04012152568541326,0.005948819107329785,0.01542874362444419,-0.0010540427845686742
3.55,-0.2632929571979798,0.16874930639204272,0.5954640859294691,-0.0011269473677845802,0.018658873252912617,-0.013133178471105253
3.56,-0.23955284259208326,0.16013463532487263,-0.11072233584160657,-0.00878527817759333,0.001987651230056795,0.009481158747025601
3.57,-0.2697578382891904,0.15746374360401882,-0.013945931381278776,0.001129835613914802,-0.003335793998232906,-0.004910538095996312
3.58,-0.2547691942670232,0.15716401531857738,-0.23927302394587532,0.0032030996509122387,0.0075878739317526605,-0.00028020144164654507
3.59,-0.24890394429561602,0.1493596565310392,-0.04694749808013049,0.01433611014464962,-0.002398415236033979,-0.007331000611510691
3.6,-0.26199143376314665,0.1771539774739216,-0.06015909158303191,0.0028528469347267253,0.012959808620172437,-0.011400818978567002
3.61,-0.2512002574364548,0.1576920729517058,-0.08946929231856551,-0.015028156438856962,0.005643653113275522,0.008348548757154444
3.62,-0.26770654305940494,0.17197581105714857,0.011498615835816938,0.017973152502141435,0.005823031008648455,-0.029917934917875928
3.63,-0.27782666818827106,0.16451045045729873,-0.024384032087675596,-0.00010431693271786401,0.0011937094316064063,0.008547223111822006
3.64,-0.2725680148404611,0.15332044330580893,0.15098724551441414,-0.0020193870737796747,0.0029165961878826704,-0.00621575020496117
3.65,-0.25320120472300095,0.15318919275613002,-0.07609533027288881,-0.005186410996099849,0.003753231864707571,0.008302124497670179
3.66,-0.27230298698008415,0.15858804533740278,-0.10223847613624713,-0.010131148016603853,0.003489510944876213,0.010889347808189124
3.67,-0.25879382592633166,0.14970642245274762,-0.0022186790861431615,-0.0037402235085877457,0.005699907955420446,0.0006810439883970492
3.68,-0.2755042949059368,0.1553626459514657,-0.007756881011172511,-0.006305559870394698,0.003623223499228999,0.001333879996898968
3.69,-0.2631891029342403,0.15014012420120756,-0.0345764171579586,-0.004747366461311567,-0.005543274519156569,0.00041702080404895013
3.7,-0.2564065182548787,0.16068193413523635,-0.06352613064915544,0.0017861095070129812,-7.033957873392449e-05,0.0055946209849550115
3.71,-0.2613186233482613,0.15981868476842737,-0.08682727389436044,-0.021350159528496282,0.01917166809127354,-0.012698916945283228
3.72,-0.263910144474278,0.15151247053031056,0.009153070484847812,-0.025836284754579678,-8.813309043146506e-05,0.005620861862943581
3.73,-0.24502048081218145,0.12976655035790483,-1.0682280783118128,-0.0018507299949388628,0.00371340775757452,0.01041064935587565
3.74,-0.2668560662535199,0.16664510101494717,0.014872087881348658,-0.015391586528294204,-0.014538525904520544,-0.0003171560213209119
3.75,-0.2643274611742716,0.1434152846739098,-0.012940937584095489,-0.0034361845386788733,-0.006958122846459768,0.006928963582617495
3.76,-0.2814749840571027,0.14126301707821734,-0.036290378032958766,-0.015758638693043565,-0.0028698098824546355,0.006868636239188569
3.77,-0.26905347398207485,0.17432946714125774,0.061790020458734274,-0.0187404217462799,-0.007785204196094589,0.0005243628105270376
3.78,-0.26856150415688346,0.17835913862507352,0.01997143501066182,0.003879434900481364,-0.006423894921064646,0.016212989138894136
3.79,-0.272424580015265,0.17030074777057633,-0.004018243539797172,-0.007538134412827568,0.0008388808979694993,-0.018698448973588803
3.8,-0.255797757084757,0.160643240629272,-0.038838460728229156,-0.02111012357441149,-0.0006883646654021304,0.005295467633886782
3.81,-0.258850609730354,0.16534242976070518,-0.062494982484479406,-0.0002102592304060952,0.0008271806209982089,0.005074588039142342
3.82,-0.25252605573192466,0.16315983155055705,0.04167023517786926,-0.010284906794830757,0.01097703901166617,0.006442642279272165
3.83,-0.2723975377291538,0.16361812073454754,0.009771115752120257,-0.016723310435989854,-0.017661451032083057,-0.006046209578874938
3.84,-0.2588588544454825,0.18135048572109014,-0.02150536090995569,-0.001287884731249986,-0.011527882406012706,0.006093939361459861
3.85,-0.2755530345367291,0.18564303140220825,0.38882134142488095,0.0011220339998662338,0.0029789823948355963,0.0025587246041739306
3.86,-0.27432708445447795,0.16765519943582666,-0.08712166718573508,-0.01270020281130348,-0.008434528537937929,-0.004415276701745715
3.87,-0.27537201407831796,0.15195290064611977,0.01224514090685476,-0.012149041847460804,0.007961315869713628,0.0026480901629905517
3.88,-0.2869934537708907,0.17772686904600765,-0.01401686339082647,-0.014392399740928825,-0.014026774112637808,0.00219257494864694
3.89,-0.26734814141850693,0.16578378374640051,-0.030704167062080578,-0.002156380702872364,-0.004786703111880246,-0.009553885827583446
3.9,-0.2753417473502007,0.1639944854583159,-0.041523677116517325,0.006133365998158977,-0.010357875532252687,-0.0021170238583670224
3.91,-0.2752194483704564,0.16549139281859065,-0.08947974721378804,-0.007231106391447223,-0.0036630111128541504,-0.009532969959679899
3.92,-0.26772582487485663,0.17500002496145556,0.005509024198882603,0.0044250594401006975,0.0015123489914130477,0.021333909835419662
3.93,-0.2476439305869751,0.17925394815216894,-0.009381969007936792,-0.014685392082552843,-0.008206726996106061,0.0002147297005169078
3.94,-0.2666205566888434,0.1562843201750263,-0.028593486372058666,0.007672254593106621,-0.012802862654482949,0.008864669903482081
3.95,-0.26555138199680467,0.17711076927029323,-0.05323395506820298,0.0038749887856302473,-0.00213882616449691,-0.008451675008472314
3.96,-0.23783329812550014,0.16430322398580585,-0.06587139040685637,0.0035831668166663925,0.011259337167940371,0.0007521793460658933
3.97,-0.26843026507530543,0.1766597728278384,0.02270929045065287,-0.0007550491839077876,0.005496482680334459,-0.004133490229656709
3.98,-0.2523698676079584,0.18669479638683398,0.0066777218717054,0.007131666170434588,-0.008308142527221106,-0.006399836772940048
3.99,-0.2654603845165234,0.18907523125916822,-0.02572371340759815,-0.0014532214045702022,0.00936832686660282,-0.010651917190541215
4.0,-0.2670080814590697,0.17324134739879146,-0.05536680014232193,0.016728097564970852,-0.0036796024185338956,-0.012009764286411064
4.01,-0.26367457221993257,0.17297425988960455,-0.0657255296217522,0.004529327621114722,0.003894941565317905,0.00940221279849059
4.02,-0.25875153102155257,0.17529567745963892,-0.12921309254027072,0.017238399601990615,-0.00508757845086897,-0.005615103747678422
4.03,-0.2762873053038916,0.18057970185143063,-0.012597498363991232,0.006155788768055323,0.005403237448498741,-0.013080150055336543
4.04,-0.2620905657846408,0.16162236937639407,-0.021022524331909084,0.0026007191001828555,0.018663834237804374,-0.01736206128090241
4.05,-0.25825758815613675,0.16905646834207472,-0.055934493961598546,0.006246396120463307,0.002400012733973679,0.00674762717649555
4.06,-0.23314597141309557,0.16943975844804826,-0.3671686046576618,0.012411520924983438,0.006743474841909077,0.017110783216216716
4.07,-0.25976552157266486,0.18025363182900347,0.04729435477634414,0.015975446025410178,-0.00423506235672106,-0.0026416971167541174
4.08,-0.2628843401883144,0.17720015819152118,0.016374480310331403,-0.0006887931158925257,0.011719427473251387,-0.0018227084355334493
4.09,-0.2773214323079444,0.17441598165581645,-0.008213867896586423,0.009477727084217959,-0.0153704670383876,-0.002118666203765149
4.1,-0.25620624407385495,0.15980146948956267,-0.02926138103845699,0.018519920440838673,0.011819324868336102,-0.0010544558674803741
4.11,-0.26876096814551176,0.18277900856569876,-0.05169533616234803,-0.013673401517733219,-0.005051711316500585,-0.003871622409194088
4.12,-0.2687024895186394,0.17571778121655857,0.027565320508620667,0.0030285511288982653,0.025896178183913023,-0.006686214352812924
4.13,-0.2771323888071306,0.1713776589737051,0.0007206969731485538,0.0006988789984673362,0.013509431978636067,0.00867157865493121
4.14,-0.25296160328239614,0.18273495491277375,-0.007558981408943576,0.0005980085244445916,0.003665427634462215,-0.01564169456349916
4.15,-0.2819412028283098,0.17081232448682324,-0.048211392525258176,0.005325586871955728,0.0010654004880412786,0.0010651173036677196
4.16,-0.26753922779112704,0.18398297903409472,-0.034586662207884866,-0.001224015749668115,0.001137456058841771,-0.007190527527716276
4.17,-0.27469470285207254,0.18000704689458655,0.026097478172076957,-0.0013838085535074918,0.007855229498528783,-0.008192141497180772
4.18,-0.27194715145712256,0.16286841247272887,-0.011196435456005314,0.0021368294240568866,-0.003980660237331223,-0.016639950693512894
4.19,-0.27679825619394666,0.16822831288224427,-0.018111096333283908,-0.009647336526650549,-0.009835548321709282,-0.0072569916167669075
4.2,-0.25229744472907506,0.19084691690608538,-0.043009945877013206,0.011816259341813361,-0.013627038735786811,-0.003801643301388234
4.21,-0.2704798832287974,0.1791523713924528,-0.06446556828428517,-0.010002390965005225,-0.008706287328792455,0.0001335855911242514
4.22,-0.2710882476931281,0.1594375895100874,0.03434236430545024,-0.01409587814949799,0.005129780372338842,0.010476916522966133
4.23,-0.2726022099471004,0.15414245331933382,-0.0029469306770214957,-0.0010294065779164854,0.0009797498684590575,0.0019990557197489007
4.24,-0.2935228576199442,0.18909727922589759,0.6284657707741328,-0.009693045679485006,-0.014792279369929065,0.003716658221019495
4.25,-0.2622614753749799,0.16169069560611346,-0.08542210297826178,0.007511020862587842,-0.007219556768580814,0.005578292866614688
4.26,-0.26263820679145616,0.16189986358800765,-0.07921835970514299,-0.014213522975832503,0.013979347793931602,0.002580155916693158
4.27,-0.26824026470395057,0.1635866056390625,0.00047865060453229896,-0.003585622712629165,0.019113743411852617,0.010234937190491154
4.28,-0.27492325886316954,0.14387500243514614,-0.012423632883450844,-0.007808345869689422,-0.0070169540191707905,-0.01067023363073552
4.29,-0.2617945987557504,0.15617239246053502,-0.03044711226016783,0.014991534054527397,0.006304265913409074,0.013144819390194698
4.3,-0.2755292040536371,0.1856165911552372,-0.06270043275440877,0.004777904272102478,0.00402723321240867,0.0011106457551095694
4.31,-0.24750802211339387,0.14393896296214065,-0.6375020583882103,0.004244453042697556,0.0012195979153296998,-0.0048653151515731085
4.32,-0.26380011065963727,0.174644946900216,0.04564371913603778,0.0020109923397853818,0.0034626971406202527,-0.00566147928716332
4.33,-0.23146396105551703,0.17206155198563375,0.0014570137096312444,0.008545798391917693,0.006615265112647109,0.008975121096832465
4.34,-0.23798848732184805,0.17023838688327808,-0.011857314734222347,-0.014776811389568217,-0.021959070267862556,-0.016393486223898877
4.35,-0.26312642062466796,0.1464211366511223,-0.022107156980957374,0.015483332587061393,-0.014254930155415391,-0.0028248989787300967
4.36,-0.3092082909685152,0.16388850049947723,1.1914716566764922,0.008242653525132294,0.011673261258697094,-0.0026679666087703413
4.37,-0.26353555669576856,0.16370986491682862,-0.09389599634014498,-0.010899462600222246,-0.003903578432416384,-0.014336341705366237
4.38,-0.26177640734112123,0.15156837257506342,-0.05600419210496907,0.022023558559402946,0.005401782642453515,0.0030790709729556108
4.39,-0.26691248645016447,0.15568156035551647,-0.08328032331976207,0.007846622772910535,-0.017265223768623286,0.012160113977517773
4.4,-0.26437627750440085,0.17416737381043085,-0.3258928509198772,0.009525334392433105,-0.011634254265039317,5.0204053740508445e-06
4.41,-0.2619435115804345,0.17925799625832886,-0.08922447168316475,-0.013049911999334245,0.002894079193805279,0.016680607375140214
4.42,-0.26463460690745705,0.15869978703643903,0.017657197156159044,-0.003109494150617036,-0.008413953551471804,-0.006596696078608514
4.43,-0.28505563254768973,0.17407729309392286,0.5417600571833022,-0.0012614138661103252,0.006792748672489515,-0.010258892709619126
4.44,-0.262880009896992,0.15355121589573445,-0.08514396644386275,0.018043032941981983,-0.012877179613344062,0.0003444600813929978
4.45,-0.24900353762325672,0.15008194366358424,-0.13134952858925203,0.017549383964367837,-0.01758669817111539,-0.0070611322154575835
4.46,-0.25850029205682457,0.15413685671506366,-0.11415985184330983,0.0029159700900559383,0.0007891253633974266,0.014566770634149954
4.47,-0.25330286653695677,0.16329082305077486,-0.5025882679984839,0.012471652832670946,-0.0051065616608007205,-0.016320902176910543
4.48,-0.2650685316285527,0.15603958153188843,-0.018753991014072668,-0.015135918176690534,-0.00918900451458501,-0.0028703253359477696
4.49,-0.2667783764626651,0.16071664550896553,-0.0461501694888441,0.00034373582015614305,0.0007497993560202938,0.016760154749035045
4.5,-0.25739897252505634,0.1591681318183939,-0.06951522902282523,0.0073892782049317885,-0.0072698406390759385,-0.003899662866077236
4.51,-0.2619263677597142,0.18205386828394615,0.17136514656058585,-0.016228484753931408,0.005095986148491793,0.014187524928324126
4.52,-0.2595439022550639,0.16353278125200185,-0.006107634780664513,0.015004059096443803,0.018643656467077076,0.002171329168971175
4.53,-0.2792226934016726,0.13863290727200456,0.5460775446537361,0.016965248037817703,0.0022419288503491884,-0.0024281020092937625
4.54,-0.251178567272481,0.17111595849939462,-0.08499252306220395,0.0026846569106103208,-0.02003244473980854,0.003887519326534105
4.55,-0.2710605944942753,0.16648970775802782,-0.09376745864619393,0.005747251160982745,-0.004183376946250289,-0.005610347539322314
4.56,-0.27183417796859877,0.15459412541018425,-0.10447170996712793,0.005787712296350325,0.0066869308504199304,0.004894585950760082
4.57,-0.24793520330957122,0.1741513977748561,-0.030219399904437602,0.009794588389880893,-0.00953635322673271,0.0069321680549234025
4.58,-0.25367876727077426,0.1539681888628455,-0.04454599362401267,0.0013534259570657237,-0.009480315745705289,-0.010880527874590292
4.59,-0.26895758244104856,0.14872873739540327,-0.057438928206224746,0.014274148578221329,-0.01020047450188606,0.008693824308208765
4.6,-0.2518315620067791,0.15284860730324792,-0.09981015694133538,0.00889548393072164,-0.0012907584171495071,0.013259460577441892
4.61,-0.2508226314880743,0.14259833470249883,-0.09030690084404831,-0.0013062239167885036,0.0034019352602673945,0.005981244183473075
4.62,-0.25297143763830116,0.15702758762207158,-0.015316373281810552,0.009318686126277394,-0.004517776219248871,0.012317561342111715
4.63,-0.25610826683452886,0.16690603083529298,-0.02935405546120557,0.0027777347550099743,0.0005881141993094308,0.012478737960925282
4.64,-0.2679629035576304,0.1633131008936462,-0.05017436446883338,0.012699670688797775,-0.01789540204537015,0.0016136259502927144
4.65,-0.2568985468384375,0.13562345821577665,-0.0757731690799002,0.004139893243809674,-0.01108497486850658,0.013780375972453423
4.66,-0.25574414725369227,0.15989476544741102,-0.09009145151678175,-0.003427992300651363,-0.0043773337076483615,-0.004302742242446631
4.67,-0.23367272958184854,0.14409392380862623,-1.2760568558075301e-05,0.01410440992898172,-0.0018002436115692817,-0.0010141445955161362
4.68,-0.2563793442274566,0.14768293391752127,-0.0336412297941543,0.003254536670850888,0.002093135138861316,0.019466524020820563
4.69,-0.24943457567074015,0.17090353275455875,-0.055947044881821534,0.007381913959264408,-0.0050096905487282215,-0.00976607838378972
4.7,-0.2543293171763596,0.121809980554549,-0.08106072618371973,0.005037848148626509,-0.013023197791511435,0.013843253619531756
4.71,-0.2643964762622182,0.1558066180960371,-0.07772495667382345,0.0013108263451314585,0.00924665276584525,0.0027104059841025685
4.72,-0.2535713716119701,0.14172624044230386,0.011843347609530408,0.004983404248938191,-0.006185005296029146,0.003884570476326411
4.73,-0.2488538789137958,0.15505882301218488,-0.014273545988826495,-0.004500257501921876,-0.020106767304985722,-0.0006555242339646833
4.74,-0.266416669990289,0.15583415276653712,-0.05007680437123972,0.011709734235341804,0.012977626900828803,-2.6210732981572175e-05
4.75,-0.2618663944666736,0.1470061310158435,-0.06454081973792672,-0.007546277057543319,-0.004583412654881093,-0.006034714093321342
4.76,-0.25163874756510834,0.1633273674132502,-0.07251329692964899,-0.0028102194026051928,0.006188756312360225,-0.004959743274365896
4.77,-0.24263446012697257,0.14068673922506506,-0.006195156868388905,-0.012649316063144293,-0.014989365311929183,0.01774862131374695
4.78,-0.24156131577432313,0.1407953097319829,-0.03381169604709628,0.0006822454950162883,-0.006267564239975047,-0.0003021306848561083
4.79,-0.24397109844643894,0.15150415765900918,-0.7809700471676428,-0.0016698792370250272,-0.01944193129267503,-0.005885011306414464
4.8,-0.24871578242693307,0.15556459406021278,-0.029831344855539257,0.010877047634104886,-0.019639714333333294,0.0055233960468780655
4.81,-0.2540533719846739,0.14463779976004468,-0.045458637729268246,-0.008030377502133616,-0.020544601411141422,0.005405874963083332
4.82,-0.2560209366588124,0.16326521017788667,0.33874837323148055,-0.00287505433195848,-0.0021436230610327256,-0.002473896967849544
4.83,-0.2532736635535695,0.14970294708911563,-0.03564868392187316,-0.0005208729885976282,-0.0008887315644042718,-0.009391231104331583
4.84,-0.24719371910910265,0.13449069733539243,-0.030807667539596812,0.019004625753518557,-0.01893349836005921,0.002074116779925427
4.85,-0.23225183256173537,0.1582902630950073,-0.06103548841470135,0.01590024094603558,-0.00340925498006512,-0.00022336460924259364
4.86,-0.24936330452938008,0.14343786894029123,-0.06715635722356783,-0.001388813507574773,-0.0006603018415791144,0.016642647087214794
4.87,-0.24941254177374467,0.14958253772575605,-0.004782092118960586,-0.0014671452281886576,0.011304867398949715,0.001580132342870232
4.88,-0.23951344555300358,0.1477266396818607,-0.028284789072025356,0.0020466445319495333,-0.012862190301267278,0.013487967785049666
4.89,-0.22959606861170892,0.1673999389404296,-0.04549779038244262,0.0007986933697504061,-0.01234194934258847,0.0014809319514098012
4.9,-0.225351214462992,0.14192649990231881,-0.051190187588875044,0.010164285669749213,0.001653506664661025,0.008570933085760056
4.91,-0.25037877584140034,0.15387770907538806,-0.060787914791984005,-0.00262623834384227,-0.0059394334727211825,-0.004605115653220396
4.92,-0.24658041144682047,0.14231924645218738,0.008235036735130524,0.011718348037864349,-0.00035471033655139076,0.010466633791749325
4.93,-0.23074736839639717,0.1469849983035242,-0.011560989565181623,-0.010667325370579833,0.0012216483877293075,0.011036312001670288
4.94,-0.23184468028054195,0.13797303993253265,-0.040272827176726395,0.013981254013309019,-0.019568727492258672,0.01871542300362504
4.95,-0.25486336369743035,0.12882360304276924,0.22280298334590382,0.003850637936544108,-0.00476278896664987,0.007311917582786826
4.96,-0.2471024314516189,0.15018300908605697,0.09244849251051616,0.0030887425548748225,-0.01232700469610068,-0.008999713508631766
4.97,-0.22405888258757573,0.15904843450584538,-0.016656958545573346,-0.008765837768918625,0.003867773521472011,0.009568422434472442
4.98,-0.23920745564015966,0.14775307228410275,-0.052114091664365265,-0.008499173904108646,0.005385497488140122,-0.0014446152973277906
4.99,-0.23947449107237528,0.13408019439142155,0.0606731913200799,0.02014522076018447,-0.006306968707161615,0.01426199438261946
5.0,-0.21817038304458083,0.1446058642504269,-0.07227502882321536,-0.004515681293586271,-0.0030494203539305573,0.017941288465911264
5.01,-0.22585923057398297,0.13909033178730826,-0.1553149150898573,-0.00014561000824968496,0.01026894218943287,0.0048048136792978756
5.02,-0.2533892260651414,0.15392855732266528,-0.021077844986034065,-0.00285061090705182,0.004484203138563807,0.01675955984769664
5.03,-0.2556762601634798,0.1370774098232237,-0.03948162125000712,0.01075187578522141,-0.01602008681319802,-0.013303562756230547
5.04,-0.24049290816888352,0.1350380762169709,-0.06056501738475523,-0.012580307908334469,-0.0012705072991790745,0.004448620380895987
5.05,-0.24663817877202054,0.14024092479313802,-0.12925891814737495,0.008779867819076631,-0.008593963164756399,-0.0009612099372521441
5.06,-0.2357657533765892,0.13623226540891945,-0.06257850746492058,-0.0052955673898624905,0.012993209989632373,0.008327916555304127
5.07,-0.25323423004722445,0.16189319720330927,0.005498731132974367,-0.0022413965981545577,0.013823356521911542,0.008668569350012877
5.08,-0.2387628587632152,0.13966283892003326,-0.018396331867223326,-0.004361651438533817,0.009607547971394851,0.006765484477922653
5.09,-0.22242476531781244,0.14808513343150498,-0.03490865539565667,0.028539131432318683,-0.011628811970643766,0.005239147711959324
5.1,-0.2469804487620505,0.13195522433742388,-0.07371224946176012,0.023267857248192546,-0.004415701263529267,-0.011400166181506032
5.11,-0.24190179778848803,0.14220837375608789,-0.08391707189102014,0.017383623591805744,-0.0003299105049547864,-0.00011212225651758244
5.12,-0.2266289647925925,0.13819235328344595,-0.38182219823842023,-0.002673810576618644,0.002820994811582808,-0.010140378253770874
5.13,-0.2393802773408701,0.11975794875849188,0.005777523984822145,0.013476934091704711,-0.00658513715299457,-0.002246262934848646
5.14,-0.23119652829313214,0.13650408789769158,-0.025832181916824824,0.012514393766889145,-0.012080203985574925,-0.0005103694399706624
5.15,-0.23091527590700306,0.1292684710894296,-0.05834262778553357,0.007685300630603418,-0.006635161488064913,-0.006405607544352129
5.16,-0.24371636081233305,0.12979468869941652,-0.08777763822474861,-0.025355605183225823,0.0068556353588467974,-0.00954950784320207
5.17,-0.22241392761995601,0.13605388171047872,0.011079894531666995,-0.0058135318852788435,-0.02150596525549666,-0.009135022043557841
5.18,-0.25193044945830745,0.14061310647688324,-0.12781081713515072,0.00850598474659062,0.014057604597497296,-0.018449074158758932
5.19,-0.23745993803979532,0.12834622164940737,-0.03229845718711843,-0.0009053951990250549,-0.0015022414445777649,0.0006175462022978868
5.2,-0.24729288770362892,0.1424017692403333,0.2307952351908064,0.015228644567373498,-0.008608471276099872,-0.010303288806636494
5.21,-0.23464652011161666,0.1206071750604906,-0.08074557204581634,0.0006097421570691866,0.00349513753416557,0.0066833045191196355
5.22,-0.23810572439872718,0.14135073750877133,-0.0071498974309871476,-0.0008656856767643205,0.012761310539116406,-0.020185622694415768
5.23,-0.23766207071378123,0.14266272168767125,-0.020095327385501887,0.0053264362396042465,0.006963928341437196,-0.009747294364452718
5.24,-0.23859222586304482,0.1301961389044437,-0.3982428609594297,0.010601031100513764,-0.02109118564419896,-0.00011641234336008058
5.25,-0.2244835670440798,0.1413380854826192,-0.054503919304686066,-0.004666057923544244,-0.02031988823282592,-0.002246905873669161
5.26,-0.22710592454584064,0.13631549331890272,-0.05667358568503471,0.016014709602099157,-0.011623784532945656,-0.005827516427604504
5.27,-0.22800063823340844,0.11842419808756473,0.033405880564366955,0.00665460443847118,-0.011996382167551958,0.009709597823135428
5.28,-0.25663843134574704,0.1478730967844391,-0.006532198506795737,0.010740925169565277,-0.008348451833337257,-0.01592513709667623
5.29,-0.24478568222057281,0.12087086456670033,-0.03929171743035037,-0.0076520129978221605,-0.010774470163026444,0.01101383914739065
5.3,-0.2261670469153076,0.11473783853689569,-0.047501238060780174,-0.012219735251015058,-0.00033884055498324857,-0.00568862925692019
5.31,-0.22275936322686626,0.14263903951171464,0.24434225429309728,0.015932740721643846,-0.008963439348460207,-0.003255221114374594
5.32,-0.24808932231925307,0.10675627452458339,0.0005665154602335625,0.009211185455045049,-0.011984040266929279,-0.0020383026378496738
5.33,-0.23362115476939577,0.12729763153268633,-0.029214618221485467,-0.004014536280837865,0.008931574606871747,0.004653654431870657
5.34,-0.24010730409949332,0.12009971874847543,-0.03749489518231131,0.013483163779244061,-0.0030516027568958277,0.00656350207718613
5.35,-0.24495917147970248,0.13072676702759073,0.08837283934168541,0.008885699346063307,-0.037338639567765244,-0.023238709818696645
5.36,-0.2097784138763081,0.1250712542197097,-0.08664935074209351,0.004524941097154815,-0.012227472997436036,0.0026747068591124745
5.37,-0.2123039316730507,0.12650630804318924,-0.6954563305499903,-0.00022730690260715442,-0.014517275785297521,-0.020655438709091988
5.38,-0.23830763274493047,0.12886595345531848,0.005861616983871807,-0.008524020641824542,-0.02661679951391997,-0.009505409160660333
5.39,-0.2178453939165768,0.12794851565392854,0.0033468791333157062,0.016266139192711915,-0.0108029312781543,-0.0036099127310483606
5.4,-0.18911808648415024,0.14039277997873592,-0.01136938416637288,-0.002912891251717116,-0.01949411494156366,-0.006809430380056614
5.41,-0.22389989520339773,0.1321615979055883,-0.05273943565923208,0.009728434202803974,-0.024458665432548987,0.00038102436250698514
5.42,-0.20357009116397393,0.1225777385787449,0.015181448962433626,-0.002267681252746244,-0.011973140651776387,-0.004758211147602428
5.43,-0.21315283576566593,0.12892267052255257,0.007011224872676284,0.01418922096716439,-0.019859423696660036,-0.007024583736924779
5.44,-0.21741674005859987,0.12061429311652722,-0.027763651425553017,0.008558578877699802,-0.009755580776586321,0.00047777363914209246
5.45,-0.20083555449898774,0.1345324225380653,-0.052397078014233225,0.01256726675872983,-0.01738122241437428,-0.00818432189615932
5.46,-0.19112208156502633,0.11627089175497811,-0.055188269994373054,-0.008335080158435678,0.007304297683023795,-0.010229162873387213
5.47,-0.21151285627716535,0.12332810576108832,0.033488901232275645,-0.015066605095386603,-0.0038001232472630823,0.001697291557524662
5.48,-0.21055791852169095,0.1179578831571902,-0.18578306680736928,-0.012847331725178088,0.00725527411635692,-0.014218791974429237
5.49,-0.20766212269708234,0.11527391536745232,-0.003925514043813829,0.0019002577518775722,0.0008410906002953716,-0.006584286720706739
5.5,-0.1862183290719556,0.11786368998532054,-0.8803733558593997,-0.005775599244838129,-0.014062563119337984,-0.013861317319837897
5.51,-0.2214970461441119,0.1252951572203818,-0.0006271356166240088,-0.01612358719557106,-0.003938378424609663,-0.0024115136183938935
5.52,-0.20584291430721738,0.1250274975586711,0.07178251008066203,0.010567023301504944,0.0032419285205260865,-0.003923751990367845
5.53,-0.19471757352007563,0.10564776932704567,0.0467292517153725,-0.010324870626288585,0.0034149816900732226,-0.0022777477575008143
5.54,-0.2152958764040801,0.13272064560451455,0.006069107780969368,0.004944263221315129,0.004130781711381518,0.006163098458945944
5.55,-0.1984338138210571,0.11574363689401972,-0.02984515413952066,0.005468409117560664,-0.009536451570777616,-0.015370781547484353
5.56,-0.20589034848191573,0.14137698833210519,-0.021812579133346922,-0.002102308907414332,0.025846230718761555,0.0029736975357373113
5.57,-0.19975377447232148,0.13981171296850328,-0.335445232945439,0.0018277737943993592,0.028062433479777524,-0.011836530022719585
5.58,-0.21888075466108114,0.11696212952868738,0.03255678545635747,0.010013830577746456,0.014574062894353396,-0.006432613181419952
5.59,-0.20820098816004853,0.13823589158100222,0.017022511158654788,0.006222612554814245,-0.010829970538857508,-0.005238864691408526
5.6,-0.1963228170797038,0.12217555486769578,-0.008827115011133868,0.01764646480562464,-0.01783474209263363,-0.0062980680843570565
5.61,-0.2120627882081478,0.1193338078805164,-0.025457917808162703,-0.004871573553843257,0.008363347267193403,-0.017192216132102596
5.62,-0.20340893164671847,0.11508757306630335,-0.1419971281491731,-0.00037488681061151937,0.019066055576465624,0.010518381790363006
5.63,-0.21127252855165896,0.10924775132642417,0.05253018820506965,0.01381437718764408,-0.004445169574764976,-0.0022378049143337722
5.64,-0.20959713908764796,0.1546446889603028,0.3800592742913971,0.008475529470024449,-0.01054384047341738,0.0012134444788481627
5.65,-0.20936130610085818,0.1363816709643584,-0.02688831815910265,0.001429658285239028,0.007385550229042875,-0.0049308536055649365
5.66,-0.2037395736762475,0.11961082771781971,-0.039693037852349046,-0.007704026766732592,0.014276734323873094,-0.005135667286638734
5.67,-0.20197640042722795,0.12499094581908456,0.02306223937613435,-0.008522369630219207,-0.007267910693364489,0.0015423351680162308
5.68,-0.19756137755488976,0.11215083700336244,0.02600344315745451,-0.00018117065870161368,-0.01619689683615004,-0.010502685627123868
5.69,-0.22725281232029249,0.1343966656111485,-0.0003242959760314367,0.006654981048396598,-0.0008369185426553233,0.002632925979161265
5.7,-0.22071090444996128,0.1250961499903836,-0.028756429680080065,0.01554593370521212,-0.0018918865406523933,0.004508392580999256
5.71,-0.20720123358443754,0.11884292690586677,-0.043746284173675445,-0.001870141189653189,-0.006492444216637963,0.003551467678618461
5.72,-0.1994321823450777,0.1124918469450676,0.044244260884464835,0.007948341860702642,-0.014566087307790672,-0.0005957223249640326
5.73,-0.20111589918741352,0.1263563690756962,0.014879009808455168,0.0074849835582199474,-0.015169623530661177,0.0009168506608473274
5.74,-0.21990528260900258,0.12355812557462108,-0.027876803894609874,0.0035147485046794955,-0.0023644128670063033,0.010495728405836869
5.75,-0.2183318254945635,0.13117318464280883,-0.01322928833308552,0.017208486227529407,-0.023313802844525108,0.003412875896723954
5.76,-0.2086141429020463,0.10715870894186978,-0.04172099500994712,0.0015182046239122248,0.01258846634595761,0.006302270331845454
5.77,-0.20289509327028632,0.1388824921871223,0.20255836931740334,0.0036723189848384555,-0.010259927355321491,-0.0022087612017235654
5.78,-0.20561101543891425,0.09786495567605155,0.024786422170385874,0.005180532155447961,-0.009459676614949827,-0.018747826454288196
5.79,-0.20456843186272558,0.11919412462928382,-0.013633879566677738,0.02199430190274862,-0.007497631347931919,-0.010320201517413531
5.8,-0.20834693709854685,0.1067807718736568,-0.03414975826225116,-0.0021015774013490446,-0.010258769972661798,-0.005099772518692265
5.81,-0.20604613406679584,0.11085409499557897,-0.03451065585072905,0.007038570556091795,-0.006128288265601623,-0.0013404700397333191
5.82,-0.20361648372541793,0.10890571865632276,0.029374115459578916,0.016798700462617132,-0.0018387414371271184,0.0015311017057578315
5.83,-0.20519329204326187,0.10810287976214096,-0.013894588039654964,-0.0003644747737719589,-0.009299720091496195,0.008602011991062957
5.84,-0.21271623661437766,0.12860149802848833,-0.014466497377321978,0.031460538175834094,-0.005659199250427296,-0.01209504623100196
5.85,-0.184059289156229,0.12899604724702843,-0.039279513418426504,0.025562909000670018,0.013977409408894706,0.00039659762131695177
5.86,-0.20343235767160397,0.12518744164361525,0.2781761990309269,0.006317422571752936,-0.0012548204174738682,-0.011789232663200967
5.87,-0.210332231627302,0.11880711089344037,-0.01285757392581911,-0.001278970168135018,-0.0012597161351288124,0.016709414189228687
5.88,-0.20307476607884709,0.11597104991646685,-0.000866182445328904,-0.005323179567772562,0.01902875548216882,0.004091343111670183
5.89,-0.2150818460001028,0.12219650848237552,-0.03623932582941071,-0.003473970030857136,-0.017897016278631803,-0.014580106354418546
5.9,-0.1765169118922385,0.10264736423674696,0.07834006343239269,0.005260933749000638,-0.008677188744032149,-0.005402387591620549
5.91,-0.2179195533805142,0.10383139408565885,0.34623429827552515,0.00360384706392396,-0.006036178680220786,0.01844756911669445
5.92,-0.19442117946709517,0.12008783383266701,-0.01502934175185854,0.002480991863037474,0.00919633569077509,0.0018687111085715115
5.93,-0.21969677750986505,0.10623684698046419,-0.04546478877010359,0.0017696698984995627,0.009033465803916067,0.0005983583586172427
5.94,-0.19066391333112728,0.0850311661769294,-0.060721507680334186,-0.006404919337830354,0.005315663121767726,0.005401293788337428
5.95,-0.19177263152091792,0.09574173822328932,-0.0795784619879277,0.003986437047265812,-0.008812379602214303,0.011737434625098284
5.96,-0.19992378169938327,0.11261678549678086,-0.050033721080217815,-0.006230525736443898,0.014414388936711034,-0.011044983856264465
5.97,-0.20521793044948783,0.10124567697321783,-0.005904807637999187,0.009115533262064974,-0.0054143582938446224,0.003837432429531223
5.98,-0.17709856648217348,0.10851426539403455,-0.33464711347153686,0.0019807901535854036,-0.007495040697447195,-0.006382862330535155
5.99,-0.21408234289554637,0.10778372448491043,-0.010627276697343747,-0.008109551608663381,-0.012123484502820622,0.02045781797120082
6.0,-0.21147217887147776,0.09711806732163794,-0.0347254402856351,0.01320631849907835,-0.0050803632492805294,0.01513722925607256
6.01,-0.20342809189758984,0.11505690697493469,-0.05790720281999758,-0.013715318276650533,0.0045805995327951364,-0.019141555681122517
6.02,-0.2071748039732844,0.10945827191882428,0.23310006986951345,-0.002612740232894564,-0.0004373384184602736,0.00450245116637738
6.03,-0.20487652288925523,0.08281654216659937,-0.5440109689399766,0.00322703892626834,-0.0028475060958300614,-0.015330496348065385
6.04,-0.2052600593083089,0.11298605724937882,0.0015105282044083033,-0.005262778116116158,0.001217007410413598,-0.008038740388143933
6.05,-0.19624583007840699,0.09836595968612155,-0.03602242484591576,0.03202343183002102,-0.02267217058924662,-0.016648157177527434
6.06,-0.18274286913469656,0.11932265251614525,-0.060167264385277947,0.024673706445964068,-0.021547670892450098,-0.005508918012975474
6.07,-0.18996848300998753,0.11087107084075593,-1.0932474808488482,0.010110946544450562,-0.013924122827861048,0.010427719728886602
6.08,-0.1969030324567832,0.1033493946761569,-0.04328429750487453,0.013766640046980996,-0.009513493187653127,0.004051766963085679
6.09,-0.22300699640230215,0.09437173495060396,0.03817349896265364,0.020623607941092227,-0.045099606085360004,0.009842138034499001
6.1,-0.17535165993228974,0.09742050783156432,0.0007007437593803093,0.0011878465634088172,-0.028007643205261595,0.006622261879540381
6.11,-0.21136458785980902,0.12134401549022877,0.38697074469666476,0.010276570313704127,0.00011920393657705378,0.004977925188431532
6.12,-0.1850350636698889,0.10423491070623518,0.01623138346407695,0.007826947842885146,-0.008194010859922468,0.020654521953541803
6.13,-0.1760112961455693,0.09131449122158553,-0.0005249666652065391,-0.000828034859719504,-0.023240412417339328,0.013641740545328913
6.14,-0.17229455238796032,0.09644184215563631,-0.004971605001666985,0.012959170422877435,-0.014950034800733116,0.014882040185926275
6.15,-0.182762224929182,0.1066506747935823,-0.027328534312269604,0.005007538882237065,0.00641082487346295,0.00788429717076621
6.16,-0.18317940258211227,0.10044237218391326,-0.06827050834016969,0.00248846753406567,-0.00975412883665522,0.00480581699664818
6.17,-0.18170545779350533,0.10078451669677971,0.007698523413012387,-0.0018215409483417072,0.004642521846842973,0.004587971498869073
6.18,-0.17647484579027448,0.08442385657749087,-0.0038578382609364015,0.012771515074368786,0.0027119026673951586,0.016164725392209117
6.19,-0.1872931975623357,0.09636925890595828,-0.011684625925386837,-0.004287597121885766,-0.0033877338353740993,-0.016772902212453387
6.2,-0.1711969657490535,0.10042411815647671,-0.21487630978911815,0.01678102314249103,0.0030101623607011185,0.009800377912021225
6.21,-0.18229156071507077,0.07866993617727495,-0.30614833172188743,0.006434204048487291,0.0019407807091446256,0.004453758142815496
6.22,-0.19439525090223259,0.10342370518168405,0.04391478242841292,0.006930571400093413,0.0018757639145653554,-0.011098285187477377
6.23,-0.17428471992168418,0.09662176413434422,0.00924249921860687,0.0009777794911213435,-0.0010530524360542505,0.014672986489477307
6.24,-0.17316653096999174,0.09336716692144861,-0.00021704781715195737,0.01288119876707063,0.00561404084327292,0.0009932774545893214
6.25,-0.17548068011148987,0.09311985747245721,-0.02531999701282874,0.005086240404147934,-0.01315365595540011,0.008481128553638464
6.26,-0.17472704126427602,0.10058325240918543,-0.03921926326485448,0.013317006790352455,-0.00016823557616250755,-0.0033261841687614122
6.27,-0.16677782566387964,0.09637264046196285,0.02684943183476592,-0.0016254344009002143,0.0031235556604061556,0.0070804264787088225
6.28,-0.17947722340811922,0.08152453475524352,-0.00785675287117572,-0.004606497675472263,0.0031722910043668305,-0.009454384209415271
6.29,-0.19395090939087978,0.08652992474536986,0.00296098349633769,0.000769371826977637,-0.0031282905531255564,0.018790673306851427
6.3,-0.19506062045689435,0.0896396070533545,-0.029766445655320207,-0.014685968985148852,-0.004758982713457834,-0.003362511809892473
6.31,-0.20101327844363953,0.10443680788729909,-0.040240710947426636,-0.0034355128002601827,0.02313513904635918,0.003879957353184813
6.32,-0.1988744382103147,0.08534062473631465,0.03087865418296519,-0.011395250444976274,-0.0018439780265907205,-0.0012828153949476532
6.33,-0.1689128258487404,0.08244387459400249,0.014114744134362948,-0.023673718729555288,0.015461211037783485,-0.015502986404479344
6.34,-0.17349804348490164,0.08443345171775554,-0.012871012897201915,0.0009846009854115375,-0.02038731417127267,-9.716616915653327e-05
6.35,-0.16469061011088998,0.059546936418449575,-1.2591758792280123,0.007181879823672391,-0.004895637089251727,-0.017195650296269314
6.36,-0.18254327737215834,0.08486909326803982,0.015779449724348537,-0.002764243402267121,0.0047287851036300205,-0.0005521109515852268
6.37,-0.17787540604220958,0.07450838815167435,-0.5734181019551696,0.0017272861164260443,0.022423753262148294,-0.0037502263419576546
6.38,-0.19404610753888482,0.07834564363906464,0.09178450237877529,-0.022068108537634887,-0.0005475368572592986,-0.00966866789386913
6.39,-0.18978171124704482,0.07868436735117333,0.06768251431667208,-0.016117278111238753,-0.00757185536896947,0.003761947028586548
6.4,-0.19662241948682055,0.09309001354650406,0.020630509156375133,-0.0030627913866676506,-0.02887242807919113,0.019986974378336374
6.41,-0.187115058776757,0.09899893524496838,0.005551574350692756,-0.015232949737645812,-0.02237175390871171,0.01117411181468007
6.42,-0.2186585399640987,0.09222917179903528,0.5368162899211782,-0.009456216427540253,-0.010538609717426189,-0.01609025184876329
6.43,-0.16205032804024297,0.10458322316637683,-0.33280330433849087,-0.0234755976577469,-0.00839834375174087,0.013747880051670058
6.44,-0.169698375733838,0.08237075459837691,0.01814954849733841,0.009250684593787504,-0.009552600766175205,0.00036265061855877793
6.45,-0.17485171859456636,0.08294544153906515,0.28547474885313634,0.0014956572062292594,-0.007202299281948689,0.012748345565421771
6.46,-0.15967675910378543,0.12123784423294928,-0.03361089707080282,-0.02330622544034993,0.006451617398919613,0.00849369248921555
6.47,-0.1790104042009998,0.09537363215753596,0.031607319771949784,0.01687923910743798,0.007214425571656593,-0.0006096886926041994
6.48,-0.17973722706244316,0.09909530845855742,0.20381818187316436,0.0027362458072670267,-0.0017472402053545638,-0.003143446999807962
6.49,-0.18068965427378056,0.09915017321762022,0.13270555073201104,-0.005352696292713317,-0.0038730426634266575,-0.0040270849710108
6.5,-0.16041141842870557,0.08630922135376379,-0.021744350793852014,0.010699020492921428,-0.012040665798571744,0.010353808854970892
6.51,-0.17336694999972788,0.10935582392490753,-0.038077674293262406,-0.004382366709895551,0.000653759210788973,-0.02399082759962099
6.52,-0.19237766810250317,0.10807939510920017,0.7474993209410566,-0.0012609659799474684,-0.00762192369851868,-0.0015060640378781525
6.53,-0.18651797113021523,0.10437877326808055,-0.03540735480799144,0.0003397908463574832,-0.022585875688935678,0.008234409036600915
6.54,-0.16997315707737898,0.11619916100194747,-0.045990147308690776,0.006663209437446406,-0.01929903004158091,-0.02835670419129109
6.55,-0.17789313776914795,0.10541982089978941,-0.07387454474628982,0.007446168501762998,-0.0218312111647044,-0.0036138969262607054
6.56,-0.165301753805281,0.08962755114463584,-0.058263244849979245,-0.0175383719586824,-0.021038054031323673,0.004514991354808091
6.57,-0.18257858465283494,0.10618592758606384,0.004993088475519835,0.0005701551380353819,-0.00531378736717838,-0.01665938953411876
6.58,-0.17180721418872333,0.101945762241198,-0.5438438068983877,0.0081676700599984,-0.012258387628238512,0.0024745560959715178
6.59,-0.16369473487376826,0.08187944177604414,0.004911880972868456,0.005956418293739291,-0.011720184717472833,0.0054380948812313736
6.6,-0.1526662711885189,0.1116447833044279,-0.024555557031386444,0.009449731655726098,-0.002019838636588311,-0.006826820947590197
6.61,-0.1498798827654227,0.10009540692112656,-0.02700771447080179,-0.012396677485170713,-0.007958911032533635,0.003917240223114038
6.62,-0.15753385621111599,0.09594076627059592,0.015542511446104983,-0.010904008510389165,-0.0026072515677243095,-0.005088850213443774
6.63,-0.16620019119652643,0.112036315679903,0.0040478112022296515,0.0015943008293317418,-0.021213690847404654,0.002209393360907595
6.64,-0.1692140301997872,0.08557048510728067,-0.006745461180246564,-0.0023519693556102554,0.002426365109531139,-0.009587442561810652
6.65,-0.17168063231323027,0.09792917306892607,-0.015740566918992935,0.010225428234783793,-0.0084019089268192,0.00394983296324249
6.66,-0.16043520147471144,0.10823309866133687,-0.040607986912801104,-0.0052506475116436335,0.0034405014605475397,-0.006617005042114911
6.67,-0.17104675279942874,0.07990224199434287,0.006405463705907756,0.0053091893337805125,0.003438479653650522,0.004085980974310533
6.68,-0.16519433148877286,0.09289622400470687,0.010517777445435177,-0.010191585986662793,-0.0007809541064428931,0.0010187670678409241
6.69,-0.16757597816210654,0.09191125637139513,-0.019871048725360274,0.007861657881481644,-0.006944319763133755,0.0038501790824813117
6.7,-0.17268846739299065,0.09312067346736465,-0.026210327095289615,-0.0025941134607283117,-0.003373730455097354,-0.008556698824439152
6.71,-0.15150419313850616,0.07158421528053906,-0.0666204827999487,-0.012262093857165302,-0.015851251133138226,0.0031473993286149846
6.72,-0.16677730466521282,0.10304298366042254,0.018391547601502207,0.014464466910126771,-0.003303900484782666,-0.013072344807514371
6.73,-0.16852713108716563,0.08147330799660848,-0.09377704763614154,0.010729136637789047,-0.02066276503694644,-0.010605553571631258
6.74,-0.1668128588371433,0.09469351444972901,-0.04044705410648082,0.014286036305055925,-0.02428767745083657,0.00034878999246199405
6.75,-0.16353437468428592,0.10072938198591701,-0.021839429909025997,-0.0010613678419690844,-0.014935723845853403,-0.005207762316092919
6.76,-0.15453122628101146,0.0962050147995825,-0.050138553983473555,-0.016967506031660674,0.0032605724127364234,-0.0011452736202564881
6.77,-0.15884204852335082,0.0912247071050718,0.04544848460451356,0.019093504003816864,-0.016496606988142357,0.01248885990796607
6.78,-0.1529568243574882,0.09291168487642341,-0.009098193006775994,-0.012206130276259435,-0.008667733177102715,-0.003744474901370716
6.79,-0.1588367333100514,0.11777306231654514,0.6645006003147488,0.009013286551326532,-0.012985276997690524,-0.0032280059189275442
6.8,-0.13548667507095036,0.08792575183379499,-0.0855047410639039,0.02578293008230355,0.00829003289447575,0.0013712019336092037
6.81,-0.13449156211145905,0.10355392366725547,-0.09195887232909326,0.012891371378214809,0.00515342410004529,0.011167300061945985
6.82,-0.15764114622911488,0.10658694892931929,-0.0006656430181158218,-0.007660594088666484,0.014724641536484208,-0.005536986085384301
6.83,-0.16162514809566056,0.0837622916670834,-0.02564705866809571,-0.0036587650490610413,0.006530136854059624,-0.008461525976927174
6.84,-0.14907185304199333,0.09043755004176625,-0.5302955971306719,2.4575614083172104e-05,0.010625324431119989,-0.004055774395061018
6.85,-0.17046269721570617,0.10932368554600627,-0.03530931374148754,0.023334660861432283,-0.007358627058734666,-0.012601304967667882
6.86,-0.14384392276648697,0.09211564444439915,-0.060747388388415556,-0.006624380828817535,0.006537170926006284,-0.006710485313317069
6.87,-0.14327656543346964,0.0861577202160327,-0.8596409464234402,0.012353124014759301,0.010092967372791344,0.004780087891915727
6.88,-0.15966361282371044,0.09607811929587164,0.026201626657315912,0.005473480819058323,0.0045490176054129175,0.008809360079616042
6.89,-0.12959588631682128,0.081930674307432,0.010646129370401117,0.0033198640348271868,0.010892182420917718,-0.030933585441725663
6.9,-0.1686876802345978,0.09335154292573644,-0.021496790370428873,0.018023232488060995,-0.016473974790071753,-0.015590389644346952
6.91,-0.13786268118345754,0.08748107475140109,-0.5313528545577172,-0.003074750874798367,-0.0056754290364618605,-0.015596355550641856
6.92,-0.1357182585361964,0.08198720926302319,-0.8267264407635221,-0.003106145787375999,-0.009101448393969182,0.004411960764458673
6.93,-0.15496739106797375,0.07696951448624438,0.05828262713563409,-0.013938291414977287,-0.0017979226070118167,-0.012206766989655898
6.94,-0.13874193944669294,0.07305826446349932,0.03952834834820343,0.029749936367797918,-0.01929764482152445,-0.008102702318060206
6.95,-0.15306116030131714,0.07397888145299632,0.009603481952346688,0.02801651094320798,-0.004347986173349526,-0.008833362771327739
6.96,-0.15878431239359067,0.09399562097657499,-0.01023797672466323,0.007278484935062512,0.0051560649156885095,-0.006984825375846035
6.97,-0.126351483995521,0.0851011086286482,0.0642867172645887,0.016474737448029686,0.005317808543337717,-0.02173855462326342
6.98,-0.14129982206087038,0.10804997802128802,0.020450718853725222,0.010144511357002537,0.00855438259018571,0.01611675167813118
6.99,-0.13353330951263515,0.08794931654634433,0.16222235779898034,0.01681822478041994,-0.020810586051163982,-0.021249096052603163
7.0,-0.14634982978120595,0.07914277287544545,0.0010517087126054449,0.014054104949489417,-0.02188206935980643,0.015847442926281975
7.01,-0.14708770782228536,0.09629119903979588,-0.15630621246030363,0.005111480046612186,-0.005008648575315862,-0.025956538380753957
7.02,-0.16834737274661993,0.08927922396690494,0.832146855951389,0.025092985227374902,-0.022745480859376284,-0.024628116651558292
7.03,-0.14982612535541592,0.09773529841906246,-0.026712566501306295,0.01770153361144847,-0.017956416908699927,-0.009321300506058177
7.04,-0.12034473375195032,0.05914096094997508,-1.261095159064631,0.006255803372822207,-0.021310823565243057,-0.004854517860997899
7.05,-0.12373635450443682,0.08505085525875601,0.03472393064274899,0.008513454030630375,-0.016548285000132452,-0.00912781404751481
7.06,-0.13626195124430263,0.06946553034762888,-0.000325677802657548,0.004349277089894512,0.006060695913194423,-0.013292784101169002
7.07,-0.1370629431714809,0.06002037562906954,0.08241358836759168,0.018947017751479247,-0.014294182915478352,-0.002538994715888058
7.08,-0.12542148396732822,0.056934620617790956,0.038390387999172944,0.0013437551888041462,-0.015096005006752976,-0.008604808018335918
7.09,-0.14008014292147997,0.06882876339937563,0.02451755464390489,0.03094317873516809,-0.01913967802713947,0.005746280232786244
7.1,-0.15264738627685834,0.06992376577446699,-0.007575440919720635,0.011865076389663306,-0.011999709472259304,0.01428150768991615
7.11,-0.1336353021471497,0.051865681609645865,-0.018505276585791385,0.0006191778484227707,0.001818146600499882,0.01696097779422095
7.12,-0.13376320029631636,0.056773526649362555,0.4085526037451242,0.000734328787041159,-0.0016987781549465918,0.010062248150417324
7.13,-0.13468569809190034,0.0862172403618543,-0.013978560863280046,0.008026633966432063,0.0015058446793616113,0.00883068883312936
7.14,-0.1137474723531327,0.06960289698348658,-0.01165553931314501,0.005311052186047899,0.005511985923938489,0.016992138239348895
7.15,-0.1422329145107252,0.05824189793391953,-0.030917464913491143,0.011514421029345804,-0.00151134968626636,-0.004891550185044913
7.16,-0.136272553724595,0.042344239045755724,-0.012663724621031078,0.006069358912416735,-0.0015137592758783461,0.021644171378072504
7.17,-0.13564386714052806,0.06772382673893466,0.030502573957635587,0.001008735115618071,-0.005766385242128325,0.008675341252817739
7.18,-0.1296024071295049,0.058583385203436866,0.02152671290069296,0.013501363653871192,-0.000420591497550533,-0.004189123784525451
7.19,-0.13635524978218655,0.0693217751206859,-0.007509084948012389,0.00026469432943550253,0.01565256469662788,0.006208268943521278
7.2,-0.1261293265060241,0.07261312802521797,-0.031639791761234166,0.003695686889833419,0.00624941280716996,-0.005547909308192758
7.21,-0.1317935565454687,0.07447854168096,-0.038359874734904625,-0.011557586964284123,-0.00013770622075776756,-0.0023280042649957864
7.22,-0.14048239952479924,0.05879950465693735,0.024673268460909156,-0.0008310725905907538,0.015158665812827168,0.005443673855009067
7.23,-0.12237501528042653,0.04564517702162298,-0.0051625649246729065,0.0024666219594449584,-0.0011853806610404004,0.0033723882412821592
7.24,-0.14188277996747542,0.04211453487427633,-0.027606126401012898,-0.00290884023343312,0.014864637444788897,0.0024568974424063333
7.25,-0.14429137934064096,0.05992884115726167,-0.03751508173359619,0.012280750693620317,0.015336947814604911,-0.010110811363000327
7.26,-0.1317038929669761,0.07789442362579393,-0.043304983762931175,-0.014763619810349866,-0.003587130056823982,0.003765066259775118
7.27,-0.14090691400602579,0.05239774154599475,0.0629789136091385,0.007448994180548765,-0.007303032345230625,0.008338897764506595
7.28,-0.14214223638010912,0.043211578479505144,-0.015014588453149237,0.0021858233227848778,0.004890217610494916,0.011844272356497352
7.29,-0.14091832057153075,0.06699680738028793,-0.01590423616840395,-0.0032178054834266128,-0.026746167001288786,-0.0007600944061774257
7.3,-0.1470655731446113,0.05524822237143775,-0.03127000323023877,-0.01461797684781313,-0.007727747672402138,0.01145147502753659
7.31,-0.15115842249986924,0.05618975112637805,-0.05771205664001446,-0.0008901036522314231,-0.017343314164968267,-0.0028986267818481353
7.32,-0.1374003084976095,0.055679863675475325,-0.07960503558281803,-0.009656919191631256,-0.007758916939488908,0.030495115594257816
7.33,-0.12750722076512655,0.05903829084048561,-0.017107660082735086,0.0013197617382437025,0.0004370978128552189,0.018269696354945464
7.34,-0.13665133800764523,0.07458655983806696,-0.02763410203433759,-0.0027635020938133787,-0.0009078308761689604,0.0008949433780424502
7.35,-0.12742155123116986,0.06228491522916268,-0.04546953556287832,-0.002331402493124608,-0.008868904961957488,0.022985378941433907
7.36,-0.12341770471353572,0.06316683520114413,-0.06673518135854889,0.001051750525072487,0.00254824055654268,0.015361546034099423
7.37,-0.13491179967872508,0.07441818495916286,0.144332035949777,-0.003331293674059003,0.016667353684088483,0.005145829895536803
7.38,-0.13078502120378185,0.05890774055371227,-0.005013459348882357,0.004583417244716112,0.0028038773269252284,0.01417708975618311
7.39,-0.11307108792040046,0.05934556546701249,-0.04618411965107429,0.01597597447202797,-0.006779112042013089,-0.006574698972463754
7.4,-0.1273086712091982,0.058669500734222016,-0.048680350979468316,0.021770891368768735,0.011220733229540505,0.00438980438979788
7.41,-0.13324693285860187,0.07161649547986597,-0.05286896624459668,0.001626816346323071,0.011526231977112836,-0.02647682721859551
7.42,-0.13798120617996268,0.045864527217319935,0.006993279339692028,-0.00030490944946323824,0.009527730186078099,-0.003916245806389572
7.43,-0.13685842564647382,0.05570683425602404,-0.011756088019405687,0.010895230796460376,-0.0016872108298763302,0.0023274198670574673
7.44,-0.14297017255148753,0.05460886101754597,-0.04077654512124456,0.021250756410459103,-0.0125408848246946,0.004282699449283324
7.45,-0.1483919487495948,0.07067404448679857,-0.05154840716031593,-0.003255394676895484,0.006183490244198914,0.006486741122149053
7.46,-0.13966418010170412,0.05361271002789772,-0.038015280721912334,-0.007829835748815694,0.008745691924075436,0.0032506615224658164
7.47,-0.15025118313625288,0.062131805669803336,0.0152125490477191,0.009832562104737281,-0.003923152198126262,-0.0014274526976158382
7.48,-0.12869042874588135,0.05590818707220779,-0.022618372327048743,0.004689289385956785,0.007978636255064158,-0.024465040700718057
7.49,-0.1481961307805699,0.053582136440431916,-0.034521241811536534,-0.013212691575252667,-0.0033601673445267984,0.005964744408893155
7.5,-0.13423454405715923,0.047720036676422745,-0.052872189958522095,0.003226318529318284,0.004653197516861827,-0.005249103285572078
7.51,-0.12945466523055252,0.06187298232283769,-0.07193857672602103,0.018574083190818328,-0.0011036410451359564,-0.009152283587972343
7.52,-0.1306669065249115,0.04714603313954649,0.0016502600870004491,0.0023421062139903897,0.025862812079475384,-0.00395501876331664
7.53,-0.13192248212796276,0.05626859006569946,-0.01787361075026812,0.0184565662367564,0.0010127337386678084,-0.0019054936988700897
7.54,-0.14029926264016837,0.07065085189975134,-0.033806580232619544,0.009713767373048597,0.01271488542419999,-0.001763763741554299
7.55,-0.13597035952080871,0.05756656454782486,-0.05983022797362686,-0.0019453070241664955,-0.006349683577142847,0.011980562209772342
7.56,-0.13664888297787187,0.05961209201960213,-0.05530578684584752,0.0029038709841574992,0.006659671840404696,-0.006203141813476696
7.57,-0.1258161543717772,0.0543413270879135,-0.0647050729058643,-0.01792527486680718,0.007218306154064373,-0.013216202659289286
7.58,-0.13154142200420363,0.057716698730532735,-0.02037269446437149,-0.0008670265481487485,-0.007015132961998511,-0.006705230394043475
7.59,-0.14793923947150284,0.03806709207432024,-0.3896424526950138,-0.005235906936844569,0.020940989417712268,0.003692242936243914
7.6,-0.15173675176173052,0.06974286505244763,-0.043271702969599785,0.011263013884865673,0.003924014789212116,0.0016220941421204995
7.61,-0.12672741747579636,0.05863047665288658,0.002211359340097037,-0.0005255283233754184,0.012137241741885517,-0.0015176914488777822
7.62,-0.14990726230120027,0.06597645051308779,-0.004733437149324187,-0.017830685582355253,-0.0032435931681257255,-0.004541241960902792
7.63,-0.1564441362009218,0.056858892358726355,-0.021258349987500817,-0.006678560165670588,-0.020333612323860942,0.003925176124073465
7.64,-0.14477175864955588,0.06090858868303376,-0.0347408713076284,0.008861081598377115,0.007868854167425908,-0.0057226256370344186
7.65,-0.14056516698604335,0.030027128430930364,-0.05971196535747199,-0.004146157792737911,0.0104586569865096,0.0008461741251342023
7.66,-0.1340687330937584,0.043759168450209364,-0.06063995293352088,0.0032664688481492173,0.026266584667197446,0.007342689471990258
7.67,-0.1306906993328947,0.051328524019690076,-0.01824771627472404,-0.017132351294219205,0.0014576079806131763,0.0011326483199516268
7.68,-0.14000639053532757,0.059605251140874754,-0.0352400778602647,0.021414408259162028,-0.007872864305344614,-0.0037403272058194248
7.69,-0.1474737302589669,0.0619829744512852,-0.03179170912043239,-0.01031105182593012,-0.014057298651378648,-0.024325686758133857
7.7,-0.13643236131219477,0.059381474040295375,-0.03776520100538664,-0.002092271791219385,-0.026324728858248728,-0.006586553545872884
7.71,-0.14046083713725452,0.05028916219127688,0.35001254169505064,0.008620332495036482,0.0023199798236206645,0.003232422857282363
7.72,-0.1531461653655859,0.0752412503171664,-0.04005118037907303,0.009603355043663346,0.010753779972863779,-0.00503998999315444
7.73,-0.13660289055199887,0.06831113260900717,-0.03728573629107229,-0.01974423430715175,-0.009868662704205888,-0.0038408656614737635
7.74,-0.14051908918768785,0.04105740375391503,-0.04413974997156165,-0.01599758866312443,0.0009826387899062473,-0.003455365873138532
7.75,-0.14869794269921308,0.05395417569180587,-0.06412952458887097,-0.006597734259283324,-0.017366150669369692,0.007444079769247122
7.76,-0.14542423738293775,0.062449775685816965,-0.07632079932591243,-0.0032851702608734214,0.007058717957004522,-0.008748809932188477
7.77,-0.1368498177694122,0.05074312180965466,-0.024703027626739697,-0.01020246758916932,-0.0005608990648452959,0.01678894511193531
7.78,-0.1451008161502433,0.06486470525015371,-0.04384065788474674,-0.0046589733544861065,-0.0006261601295892011,-0.0018351035042675314
7.79,-0.14321338251693028,0.05287357701697664,-0.04855701720074536,0.0208001402036705,-0.005540029489031155,-0.002596287655428158
7.8,-0.1331674086222565,0.06013185158623655,-0.0611296931965911,0.010473527710893295,-0.01962813391376774,0.008868666887414814
7.81,-0.13304794993823543,0.06494727192743335,-0.0598064739525824,-0.008016949549107297,-0.003732192656428284,0.007260721760993063
7.82,-0.15888090161640445,0.06272913291930378,0.4262037926104445,0.011532756975825946,-0.011165104737672982,0.005595146457530041
7.83,-0.1541122468782144,0.04341930760030513,-0.07686921669017102,0.01009323781796772,-0.0028769172410601264,0.0140697274834288
7.84,-0.13730219472754027,0.06786437512686136,-0.08846714864623935,0.00013662621218791127,0.006962854545500741,-0.005998145380696967
7.85,-0.13898804347675836,0.08312343797264342,-0.07711591140595969,-0.007010335375952196,-0.008391663417316161,-0.0034502048139536494
7.86,-0.13639867645768416,0.06780483619562827,-0.2892602590328122,0.009302046735641563,0.001422775429792952,0.015772456919124656
7.87,-0.1374216261741161,0.052955099093412686,-0.030621444741968033,0.00391125742987908,0.003427106404153914,0.003813983287321729
7.88,-0.14404470989020976,0.0684921184220418,-0.04400379346386886,0.0026779389075306157,-0.01788088941808631,0.011810686006369198
7.89,-0.1655211310795494,0.060259297044629345,-0.07465126965074781,0.01094913263697153,-0.00681532031684718,-0.009058090264968205
7.9,-0.13354331770784975,0.05432137274006337,-0.09117823578411252,0.004330752871252121,-0.02003508440927979,-0.002660162832445887
7.91,-0.12409123860863944,0.053942868242766784,-0.07062673540100078,0.004655140668636551,-0.0036105998991913385,0.017544668368363634
7.92,-0.13074952394244907,0.0447077627362164,-0.03688361399024938,0.009708754471999648,-0.0041884268419012365,-0.002995145270273601
7.93,-0.1377173453719148,0.05357152235279402,-0.050731160885079826,0.017218992813702094,-0.0008486862177606649,0.014634217382262065
7.94,-0.13479620996370933,0.0555558407142398,-0.06448772144449771,0.01682340131147611,-0.006347173447782748,0.00944051757220353
7.95,-0.12210990357360214,0.037691709800196954,-0.18184866083227363,0.006569594289146046,-0.013755646300647847,0.0013212728734681607
7.96,-0.13528556655746218,0.04451767767624446,-0.07445083503979327,0.001606725069990742,-0.005198453092327577,0.003874754474468692
7.97,-0.12942010741273302,0.03745216715269038,-0.02400486263482744,0.012997775049640298,-7.268916468239177e-05,-0.010713179360434389
7.98,-0.14481926600018272,0.0486326960884918,-0.04157731053009867,-0.002229126214369801,0.015324589048887885,-0.02084136163643894
7.99,-0.1411440286236483,0.04557361501578732,-0.057812261438390924,0.01319739018559372,-0.007084064798441963,0.002454379246826576
8.0,-0.13342365127285247,0.044041812753465755,-0.9645179656524046,0.016238523509082906,-0.0032322621298418314,-0.01169668351250349
8.01,-0.12082719644038167,0.053141248944030245,-0.025794922971053257,-0.010575869905330994,-0.010032479060620133,0.009033992865438588
8.02,-0.15003513289406895,0.03429083257506013,0.010359871131648688,0.005696096359204471,-0.018917980356221473,-0.022338377840738145
8.03,-0.13223929449846947,0.04446124406107084,-0.3908119799491544,-0.007086509171914923,-0.015008292138335433,-0.007059001819036435
8.04,-0.13646135149127758,0.05989828721786806,0.011690160423946057,0.017728814460744938,-0.018491194684144483,-0.007340163356182842
8.05,-0.10609794134744066,0.04423132571943039,-0.0326198309145905,0.002120512805509211,-0.019292171601284963,0.0058084997206430955
8.06,-0.14247524700520042,0.04747693495647835,-0.03074407725649726,0.018676936617891635,0.0020814735774980385,-0.008676292905825025
8.07,-0.1235021905000947,0.04096377168595222,0.0280890232225666,-0.006118918032802804,-0.009645969487464932,-0.002660048269571321
8.08,-0.12303058343056951,0.0445432870252222,-0.006514219732267432,0.005133058209665744,-0.008053648935404832,-0.011344553369650252
8.09,-0.11587811380055218,0.05809473744623224,-0.0150315270298947,0.006185876485241623,-0.002337399886025998,-0.01205317536344677
8.1,-0.09522752938973703,0.04649300427600964,-0.031407229097180696,0.023740242048844087,-0.010181290072160197,0.0013594819959778805
8.11,-0.12224009878237918,0.041492126144426794,-0.047025013835775946,0.02636089482443496,0.001519340854098417,0.014520597733802083
8.12,-0.13463633092092414,0.04156062578357276,0.13328280242415094,0.018685376912245377,-0.009387185405119895,-0.014950683263204818
8.13,-0.11679526763194459,0.036685463417317314,-0.46070856374515373,0.006476646277073214,0.0029310540492112833,0.003297580405951451
8.14,-0.09525273143391083,0.043992621308486655,0.001783420804151092,0.012676604895855662,-0.005127798171618756,0.004046790394934868
8.15,-0.12569659205545833,0.033551863663132765,-0.011032078483889571,0.03458182801592678,-0.005849716554415488,-0.009498747639779807
8.16,-0.12511557865090908,0.03895960868609611,-0.04447961443039605,0.0225693514501262,-0.004108035682076177,-0.01738991426103262
8.17,-0.11459719937762881,0.0395441655140583,-0.1955002814613372,-0.0005532405050100858,0.0017569270694786738,0.0016062611433570171
8.18,-0.10978729468063568,0.01338938216328106,-0.009837608672165446,0.030083348492673793,-0.0007940409405177975,-0.0030815789858661623
8.19,-0.11556974664891564,0.027734122025413158,-0.0233894330752645,0.011820459229654422,-0.0048572872668294085,0.02378797343306755
8.2,-0.1133189058285704,0.02955207089999751,-0.03112998217705013,0.009940123180585101,-0.008169025932088774,0.004867191729389113
8.21,-0.12907636135406397,0.017519160166186445,-0.036616477739837415,-0.005849563249071199,0.014921935274907424,0.011818400478671054
8.22,-0.11589659574333845,0.029078755556622732,0.009784849197528317,-0.00571926507118752,0.0035106239671859503,0.016288526510376343
8.23,-0.11113015022362777,0.019006221331356946,0.495168009123659,0.013165542966419396,-0.0035675137521583578,-0.007220788803156112
8.24,-0.11017642118039815,0.02624024219376849,0.02408353870563358,-0.012481013978258978,-0.011411241455784182,-0.011598043291642953
8.25,-0.1306973277324586,0.030824492014590456,-0.06826711528464999,-0.01268964037801029,-0.016246132517709948,0.02185222073024582
8.26,-0.12835626314246232,-0.0006990323307077551,-0.0521476214852877,-0.02996991082238834,0.0016222139796395157,0.010463414875286063
8.27,-0.12107714285730788,0.02080843411269963,-0.7468438310654049,-0.010986860451374154,-0.007036259919837961,0.009007887130215626
8.28,-0.09575732956446677,0.030052355228026927,-0.007194095107637735,0.000678219646994493,-0.017726964370953283,0.0014993379130373485
8.29,-0.10904946919785617,0.039364613170579696,-0.01057361512924704,0.0046001262618108486,-0.00709190357452049,0.012727347218173193
8.3,-0.12226216227311032,0.029401431096130325,-0.023860169785428244,0.0233930051701507,0.0005149712031208599,0.0039160831041948
8.31,-0.1096306047352816,0.03452225320382029,-0.03964392214063583,0.003094686390636428,-0.01003869236272625,0.00977138936199445
8.32,-0.11419528844196931,0.03662203912203432,0.01249790382915011,-0.0016006044600630216,0.00822467137168444,0.010244068200314274
8.33,-0.123496114836344,0.027609137836948624,0.004842513995435569,-0.010539320828011001,-0.020165827901764737,-0.008651169000277951
8.34,-0.13164209364212606,0.04372956762084741,-0.02287873862915379,7.262491395610164e-05,-0.03587750618993204,-0.005338154257660778
8.35,-0.12164464164135255,0.013185131913848971,0.5160435802321245,0.014170193715782962,-0.01927582201665423,0.01300274195207599
8.36,-0.10916303115880983,0.04330379488047606,-0.0953788024342418,0.0007409093873398714,0.023897344131091437,0.005886108205143278
8.37,-0.1232983786189883,0.03298103052522294,0.9537264447274291,0.007435566522378626,0.02529715567263519,0.009555182908333498
8.38,-0.10313415992954296,0.016960369855516376,-0.102712643351772,0.007808912401843795,0.00505046592932365,-0.013607032881328647
8.39,-0.10239670044176645,0.035482651800378094,-0.07976679337653175,0.022346669900904056,-0.004442252104311756,0.019030925135189274
8.4,-0.10546792994164884,0.022181077577174125,-0.10045119718128286,0.020266486896943495,0.005607864086149815,-0.01202803829293886
8.41,-0.09101740459955296,0.01437150466678073,-0.42976822046179536,-0.00936761572066691,0.013708429368049908,-0.0016128582173983875
8.42,-0.10669013241962423,0.028795689700060786,-0.013356799251757055,0.015447007955615162,-0.020720202519922237,0.0001651104915095703
8.43,-0.0998421497375893,0.01805616691557853,-0.04970819005490179,0.008769719688932469,-0.0060775226297137734,-0.00046799757555786054
8.44,-0.12158179922249461,0.040271120801601945,-0.04207777616382027,0.015204255492828382,-0.012727499990421654,-0.015793618458844402
8.45,-0.09667861129725591,0.015965567656744617,-0.06403383874085504,0.014827302244776082,-0.01581417482239126,0.005764426924217498
8.46,-0.08489960164518702,0.015312297569558141,-0.0711160659497326,-0.011543652685418827,-0.012243556284526296,0.004486509267213283
8.47,-0.1295138125263498,0.01789529810966749,0.4856008468527975,-0.018322308556059933,-0.008465094524905965,0.012214664519293837
8.48,-0.09215739580917064,-0.0036102619536311706,-0.07852943671382491,0.0023521223961155435,-0.005736199631725929,0.00802632022622883
8.49,-0.09135792697927955,0.01959292948366141,-0.06688608200129305,0.01859115663878676,-0.02223439156020153,-0.002874723649789384
8.5,-0.11996916025213661,0.007331114238453817,-0.07370580805338714,-0.0012249201143238377,-0.0012341316044604568,-0.006298623552910519
8.51,-0.08479293208212522,0.01764115517093109,-0.09361564887095558,-0.003482779781190314,0.0017443329165175172,0.004200428302563376
8.52,-0.10204444658093924,0.009017760075702238,-0.03094960153186384,-0.01063379481775159,-0.0076338041817832275,-0.0031510737401749173
8.53,-0.09437169988053427,0.005680944951737847,-0.06314271145809025,0.005976672104661159,-0.027774079177388646,0.0030374392626636125
8.54,-0.08263218864727352,0.010057163515869594,-0.0671077265564405,-0.019950111566610917,-0.023499207653415954,-0.00578182392690564
8.55,-0.10373917017740684,0.006359682105257837,-0.09025238310894286,-0.009433823619727461,-0.007159853153165625,0.0019767675037491226
8.56,-0.1094619144815961,0.018545045316302813,-0.0862766390181277,0.008033578363980574,0.014746226143525096,0.00038664875791617715
8.57,-0.0958616953803447,0.02004594109433184,-0.05416289174326486,-0.009855287293313378,-0.011670727665183142,0.023986110607638788
8.58,-0.07752481445855638,0.004569469943478947,-0.040130989057031836,0.004089587202802716,0.013499508787193398,0.005728073211911824
8.59,-0.10560630108856137,0.012063104340802778,-0.06989659054894057,-0.0024578892405480147,-0.016227971330713464,0.009368998918716178
8.6,-0.08341154862623462,0.03416168893187337,-0.06733895406113799,0.0004954643092495567,-0.015466527243338104,0.0009757548088869352
8.61,-0.09100602219794017,0.015855819964430622,-0.07371937906607313,-0.013321359823021316,0.00030421989552422844,0.014172790029577786
8.62,-0.10821292568138116,0.018287447689212706,-0.04874552409140505,-0.008845253789225816,-0.00716632384271455,0.008324335688382754
8.63,-0.1079523798764498,0.03841687136815859,-0.0613714857941509,-0.008063416278518682,-0.013077269928093854,0.02003881751653364
8.64,-0.09049373158312737,0.024639445709893473,-0.0806857270086963,0.011913522767910445,-0.018595504793304622,0.0029972202317000134
8.65,-0.08468048790710382,0.029953464778634135,-0.07219736337780425,0.006948415928320996,-0.0143238108293154,0.00043344522715052514
8.66,-0.08091680277067184,0.009072669670650943,-0.09333224650096791,0.005975666021807472,0.008555171299538037,0.0061514410023850745
8.67,-0.09930297310680881,0.016115383643349825,-0.04887707259852596,0.010522915490936952,0.007955362126935329,0.005251863744243387
8.68,-0.09905239763606784,0.015341376536938477,-0.05429857185467837,-0.019873201292035188,-0.01494246952647654,-0.004887542651060228
8.69,-0.09037447646643276,0.027862305668987893,-0.05667492890857125,0.004109665122220898,-0.0020195370448147284,-0.02060069234906666
8.7,-0.0891283958765373,0.021652570794255782,-0.06625442342969017,-0.0016990457771777455,-0.004656981935012284,-0.013921728415361906
8.71,-0.10894456608818025,0.011837773519169,-0.07760131989320536,-0.007808287188514352,0.006151380485371732,-0.013066315653318637
8.72,-0.0973704219594497,0.028698187570281995,-0.04330250818617754,0.0034888843934679234,-0.01932146608216887,-0.01370900946556346
8.73,-0.10503183515719983,0.03366414985042987,-0.06824339751396229,-0.009416233667080342,-0.01286266999625786,-0.007547735632784566
8.74,-0.07537984146607575,0.03193050419395679,-0.09126897121654638,-0.016997808300012837,-0.01143497961790157,-0.0024371484662828913
8.75,-0.0799702083289414,0.029850828619754008,-0.07633592484722984,0.012973254010071458,-0.020138906384566002,0.005021089085638057
8.76,-0.07419315445690418,0.01512224369578616,-0.08627574208642352,0.015212175517097871,-0.007580725426457628,-0.010246694840345542
8.77,-0.08499205118890547,0.022385637500028643,0.7440342899568114,-0.016461413280904825,-0.003739439511196206,0.0017489953898129624
8.78,-0.09940955235560525,0.027975606787260614,-0.10162034110830959,0.008606887801510857,-0.018281548605539218,-0.0017487499805594916
8.79,-0.09148175315815062,0.026814698411872312,-0.09411744418272056,0.017267484340258512,-0.018973322643149687,0.0004969728079003677
8.8,-0.07128560693317328,0.03531472997607222,-0.10871295353345983,0.011211720412294682,-0.015358631106248197,-0.009345199961465735
8.81,-0.08074604574995374,0.026849764528158897,-0.12759173725379444,0.01713753103947565,-0.007329506269241337,0.005006645372891748
8.82,-0.0899611257195074,0.015092330285201995,-0.22802416519129515,-0.0006809733830900329,-0.011688721435303128,-0.010533836258269463
8.83,-0.07989561855574735,0.020266429202578862,-0.07601502220915321,0.008911036295274243,0.008349713532290928,-0.003438741720143035
8.84,-0.07429131409880534,0.01535153753504134,-0.07397422131432863,0.011340887780555925,-0.0010818907447298588,0.019108358556302836
8.85,-0.06949179494252225,0.01788077785981976,-0.0875902194531592,0.005012466871011343,-0.014745990745910093,-0.00490953852172099
8.86,-0.055379049830178106,0.03117810900440918,-0.11666710218546814,-0.022555329488959372,-0.01391441858895647,-0.0012232843206786055
8.87,-0.07605550707276362,0.01924483359356415,-0.05900395222724819,-0.013146485761596688,-0.007365865671743054,-0.009336621917166001
8.88,-0.07696883643029043,0.008546823758880662,-0.06911403657173501,-0.006413040045667276,0.009512897043166168,-0.004483689110370788
8.89,-0.07891420408651025,0.014609554821879483,-0.0686691148376502,0.012176772839808944,-0.012664562874544382,-0.002435086418155398
8.9,-0.0820189657109883,0.04081688971358427,-0.0736033117725683,-0.0027343830185587673,-0.004738058065469553,0.0010321226738296955
8.91,-0.07487277598919209,0.026337401860914184,-0.10655246457878442,0.00534923935280396,0.01634738912570944,-0.01149052042163335
8.92,-0.07293409853543194,0.016889495416652432,-0.05307792492456492,0.0010121100795642515,0.0065747363253000025,-0.019086896352020398
8.93,-0.07644810279424506,0.013726847039531039,-0.07504683842354846,0.013867690302660699,-0.00895921499420224,-0.009205454787161517
8.94,-0.07741341052577042,0.01871096764280841,-0.07116672156826219,0.02276474693926263,-0.0068516287512284165,-0.02542662613767759
8.95,-0.0826694590974774,0.012472866339819873,-0.07916319477568674,0.03637714692675389,-0.0008373746233786283,0.005757301820046469
8.96,-0.06550899911579483,0.028025551416921597,-0.03514139337362686,0.007374757893937579,0.0037184968382651088,0.005664716558121393
8.97,-0.06204111933648485,-0.008542563209782358,0.3373871068491007,0.019138880683910356,0.022793843297626633,-0.007613722599780003
8.98,-0.06129151463710103,-0.0017055403787209697,-0.09711067634248494,-0.013900881184954696,0.010966858259222459,0.009880030987304715
8.99,-0.05727296998152727,0.004444986857006659,-0.0927077842324149,0.01609117333432946,0.0027875591861341547,0.004630410700825053
9.0,-0.08129126188993138,0.005769370676301349,0.8286608556533771,0.009223966710065739,0.004414831274836229,-0.002234858093237086
9.01,-0.07560336727011942,-0.010234142848788173,-0.16751380818650674,0.007784165726219173,0.02947207361030105,-0.01007714767766514
9.02,-0.06719765725565133,0.0011678095750310433,-0.10793794744617598,0.004978134496256311,0.02267721017166719,-0.0050501685311644205
9.03,-0.05529432163724968,-0.004740664936052822,-0.10914393735720443,0.018008298837544873,-0.009717585313867723,0.0005297525908970241
9.04,-0.07241959643033788,0.012443351076170468,-0.1258878915633701,0.0007478457640531424,-0.0022981598191228097,-0.009030364565385914
9.05,-0.06797182828072947,0.03060902253355295,-0.13549418070096184,-0.014062206197458951,-0.008795189616605192,0.002947501192047848
9.06,-0.05700902300888767,0.016740347211344722,-0.12377708669001117,0.0080194741342151,0.01099277723007144,-0.0027636762977349093
9.07,-0.08117349124956676,0.006434802312177145,-0.49448443098267403,-0.007785303568495668,-9.927029772868788e-05,-0.000945598053881015
