timestamp, accel_x, accel_y, accel_z, gyro_x, gyro_y, gyro_z
0.01,-0.1,-0.1,399999.89999999997,0.003661438532432725,0.003661438532432725,0.0015757535213963727
0.02,0.0,0.0,-400000.0,0.0027288897114379432,0.0027289765517060343,0.0010430440899009202
0.03,0.0,0.0,0.0,0.0028859438134902146,0.002886054474319643,0.0012213876034368894
0.04,-0.00035918994972043255,-0.0003591842898167444,-1.3145040611561853e-08,0.002779326552282135,0.0027795064422787997,0.0011577748235411553
0.05,-0.0006269081631948073,-0.0006268827550976216,-3.9328540424321545e-08,0.0027319342998739097,0.002732156950453939,0.0011745320203829237
0.06,-0.0009100392484438325,-0.0009099846980721914,-8.16058332020475e-08,-0.01443110227950608,0.0025797017716459084,0.0011623839321959347
0.07,-0.0011974782526434538,-0.0011973807553812706,0.1224039439051694,-0.010679221413272239,0.002538712144747595,0.0011591864295009738
0.08,-0.0014658220780870868,-0.0014656724646817964,0.1018461734503262,-0.011377126870411805,0.002468940720826647,0.0011520323245489685
0.09,-0.0017187712490993364,-3.521221719950948e-05,0.08658598225963487,-0.010988833822389864,0.0024043105043177995,0.0011452527853238316
0.1,-0.001967659703916849,0.0010205067762416664,0.07516320753353511,-0.010837214498024762,0.0023370249155256336,0.0011375094906935037
0.11,-0.002209683278335207,0.0021433013686497316,0.06652228815795524,-0.027980413428611357,0.002008087638260106,0.0011284133186942591
0.12,-0.0024757762858527536,0.0032665623579902596,0.18252693564591027,-0.023413832261751782,0.0020050505290890486,0.001119929147025544
0.13,-0.0027022066090566584,0.004338303288037934,0.1568021019693333,-0.023961520631085916,0.0019242207667855033,0.0011107461466027104
0.14,-0.002896363428082105,0.007113237782484164,0.13744210889399255,-0.023244643157423393,0.0018620335476319208,0.0011012504389562043
0.15,-0.0030909097332494167,0.009428349319501143,0.12269871358938644,-0.022791182364905335,0.0017956040648156378,0.001091402693874567
0.16,-0.0032779226054412635,0.011794862908971672,0.11130687315841215,-0.03932592007899891,0.001299913785634416,0.0010798825591449297
0.17,-0.0035020382245643206,0.014262929912950834,0.22519010379085103,-0.03454539044203447,0.0013423847188089664,0.001069861962476166
0.18,-0.003671659418800864,0.016504325868178044,0.1974321394371259,-0.03476861146154642,0.0012581896577078752,0.0010591251372548125
0.19,-0.003793000134517488,0.02039664967394976,0.17626751873223157,-0.033741508234509755,0.0012057202021435946,0.0010483519508298338
0.2,-0.0039199581841262085,0.023807386121471943,0.15989287163620247,-0.03296583269470214,0.0011471420617918135,0.0010373776870343861
0.21,-0.004039470356565059,0.027238559966557326,0.14700078910578895,-0.04890780917177092,0.0004947529582391945,0.0010244219424595364
0.22,-0.004205877005822263,0.03094453146147227,0.25968242510998607,-0.04390306334335724,0.0005878704639972863,0.0010137532803807488
0.23,-0.004308172899204749,0.034165174334057885,0.23059595282148848,-0.043803385729158734,0.0005063658319405558,0.001002285105509374
0.24,-0.00434697349002886,0.03898858454003912,0.2081634472617111,-0.04246979110402561,0.0004691888088141452,0.0009909822524477101
0.25,-0.004397066046549962,0.0433107749673694,0.1905734519169755,-0.04137952470556152,0.00042388366847683964,0.0009795665608837085
0.26,-0.004440345042235863,0.04762439766388079,0.1765091329986035,-0.056756484631501646,-0.0003769920922222765,0.0009657464947268885
0.27,-0.004536277317604767,0.05244604231458413,0.28823876686345784,-0.051534922237065885,-0.00022939970649196972,0.0009550151363694657
0.28,-0.004564254677253516,0.05645546026744031,0.25804305529675275,-0.05112797117950864,-0.000303502230129907,0.0009433310310853167
0.29,-0.004514116578941329,0.062024704130818516,0.23452695675274526,-0.049504495054973896,-0.00032106108430467385,0.000931974179507497
0.3,-0.0044812285872341834,0.06707660330991169,0.21588102733005599,-0.04811857806472748,-0.0003488608228797426,0.0009205486383888594
0.31,-0.0044425546748800915,0.07209415826317597,0.20078546203450287,-0.06296745586220713,-0.001291456381686854,0.0009061798397022294
0.32,-0.0044577094919387526,0.07790369705126896,0.3116748834486316,-0.057545585436034864,-0.0010865275739263718,0.0008957669330364856
0.33,-0.0044072174270668564,0.08251936203269669,0.2804889289009793,-0.05685473370750639,-0.001149531579230749,0.0008841831799259378
0.34,-0.004264430972786629,0.08865780916329033,0.2559997431461625,-0.05496480362159777,-0.0011440884923864649,0.0008730693293349385
0.35,-0.00414501033786372,0.09426690591450552,0.23640251896495101,-0.05330807491216706,-0.0011510512024972728,0.000861899986719168
0.36,-0.00402110850014673,0.09981976021305825,0.2203757336260992,-0.06767051623911197,-0.0022297472859484097,0.000847130404161929
0.37,-0.003947249655320202,0.10648998809315025,0.33050494447905976,-0.06206922887315208,-0.001965338320348955,0.0008372842505760219
0.38,-0.0038164342058125567,0.11154228106800781,0.2984241086423367,-0.061121470466857425,-0.002014322099120561,0.0008259871232060651
0.39,-0.0035794631199703416,0.11808638586277911,0.2730541008588716,-0.0589915481892992,-0.001983211094417102,0.0008152969714559607
0.4,-0.003372032400657211,0.12409339222020174,0.25259574719882494,-0.057091318637043385,-0.0019666949503755428,0.0008045421394177986
0.41,-0.00316160795757422,0.13002634892493192,0.23572606515642747,-0.07101064246648646,-0.00317679376912764,0.0007894121616033101
0.42,-0.002992240507956488,0.13743452071789397,0.34516477356305586,-0.06525235238618017,-0.0028512991773603545,0.000780294527612925
0.43,-0.0027810985829041955,0.14276938733535255,0.3122762351992492,-0.06407573206600092,-0.002883939162393409,0.0007693860996569881
0.44,-0.002450158389110551,0.1495710127474674,0.2861106699114657,-0.061732976629922595,-0.002825047760659667,0.0007592250373694637
0.45,-0.0021549152976339542,0.15583189035564965,0.26487508431927154,-0.059616912796069205,-0.0027829455969623435,0.0007489733837659159
0.46,-0.0018582739287858856,0.162004933969475,0.24724512492468875,-0.07313619490959912,-0.004120498770115919,0.000733456875998798
0.47,-0.001588376939225234,0.17003508541555898,0.3560573589211913,-0.06724311405115746,-0.0037327204586576016,0.0007251729258591147
0.48,-0.0012983914754140973,0.17551513768463733,0.3224433189075171,-0.06586516602953604,-0.003747160444070018,0.0007147013947274979
0.49,-0.0008751044527905002,0.1824424555176226,0.2955628021439338,-0.06333602605803527,-0.0036588080414251558,0.0007051263909619703
0.5,-0.0004935945557306681,0.18882913962168096,0.27362934723385024,-0.0610308831419596,-0.003589432123724608,0.0006954219956818332
0.51,-0.00011233068515506886,0.19511798879475462,0.2553173080954707,-0.07419180263988374,-0.005051108624488544,0.0006794543945663389
0.52,0.0002618625552990939,0.20366219449530973,0.36356256760683436,-0.06818493567023862,-0.004600159309667177,0.0006720719237864406
0.53,0.0006280221771825297,0.20916680168239568,0.32930093432526064,-0.06663177737144703,-0.004594912521558283,0.0006620516537756167
0.54,0.0011409106870607618,0.2161042716150155,0.3017819085471274,-0.06394118508681097,-0.004475759365610826,0.0006530888314302617
0.55,0.0016060634614898858,0.22250455467298993,0.2792257847517021,-0.06147209111407155,-0.004377754879740282,0.000643947620997387
0.56,0.0020693235901908264,0.22880044860620688,0.2603057191308267,-0.07431427946991588,-0.00596073857414893,0.0006274451920062408
0.57,0.0025505074309131867,0.23775936898473918,0.36803935859808234,-0.06821288251421513,-0.005445969781619784,0.0006210068933526727
0.58,0.0029892327855433453,0.24318411149242894,0.3332038798120607,-0.06650873242806024,-0.005419844753072535,0.0006114316299495467
0.59,0.0035880889754670835,0.2500318825252208,0.3051187053060289,-0.06367968621715707,-0.00526882309574227,0.0006030877020115411
0.6,0.004133405509832984,0.2563487736136245,0.28201101187619315,-0.06106978182071555,-0.005141102516247794,0.0005945081835601255
0.61,0.004675216870544301,0.26255778361848264,0.26255287028931207,-0.07363049730966259,-0.006843011743942738,0.0005773812095449365
0.62,0.005265164819629256,0.2718407450747785,0.3698262768025984,-0.06745183338622972,-0.0062639596123153845,0.0005719124201865822
0.63,0.005772113821699378,0.27709648574184703,0.33448653738332723,-0.06561880024703615,-0.0062160034978927525,0.0005627639652839367
0.64,0.0064526104058841485,0.2837694538003997,0.3059034741070832,-0.06267219487232527,-0.006032264999832512,0.0005550336272290027
0.65,0.007073942117891531,0.28992022888375407,0.28231119365784707,-0.059942498922403685,-0.005873957802838785,0.0005470038550552165
0.66,0.007690218382051459,0.2959622932750816,0.2623808073565215,-0.07225650759130678,-0.007692781544571059,0.000529165627675321
0.67,0.008389910133389583,0.30548707053851265,0.36924150894179775,-0.06601578836125571,-0.007049125679027825,0.0005246791620549064
0.68,0.008960178243973532,0.3104988155278571,0.3334629013096446,-0.0640738301646407,-0.00697858048304604,0.0005159330299696443
0.69,0.009717457148573786,0.3169254952808079,0.3044460726187026,-0.061028441068416664,-0.006761455653579984,0.0005088036926376854
0.7,0.010410141118793277,0.3228405837111051,0.2804320441640584,-0.05819785598593408,-0.006571869422729376,0.0005013057470201876
0.71,0.01109630302423433,0.32864839983990923,0.2600911036410025,-0.07029743997201526,-0.00850591608161342,0.00048267863200967425
0.72,0.011906031521949443,0.3383408171317437,0.36658285164747895,-0.06400788071750475,-0.0077974480713269454,0.0004791777501078273
0.73,0.012534294867844577,0.3430464817604298,0.33042655331883,-0.06197486632346793,-0.00770371653565041,0.0004708068141266108
0.74,0.013363103323796961,0.34916779841801665,0.3010359218436065,-0.058847426116378346,-0.007452683173972083,0.00046426159163278393
0.75,0.014122092182317211,0.3547896027911862,0.2766588275804338,-0.055932825911280695,-0.00723127324728652,0.0004572744172934285
0.76,0.014873191844891635,0.360307465435486,0.25596487606804885,-0.06784786673459199,-0.009279129116491945,0.00043779386063359305
0.77,0.015792653945778754,0.37010089633443544,0.3621277221199648,-0.06152080645468581,-0.00850572827684228,0.00043527405677858653
0.78,0.01647328915671954,0.37445005186518415,0.3256506960980232,-0.05941263554542418,-0.008388347061604282,0.00042725085779369204
0.79,0.017368093704302808,0.38021812249305204,0.2959420643833255,-0.056217962048725,-0.008103005490878976,0.00042127041467869634
0.8,0.018188064528109997,0.3854998355415015,0.2712564413798191,-0.053234325779822865,-0.007849351066565828,0.0004147715802424548
0.81,0.01899888972167231,0.3906824799405906,0.2502628943901186,-0.06499242835458226,-0.01000984629870525,0.0003943886503870385
0.82,0.0200272633016493,0.4005173000416751,0.35613327202810297,-0.0586374836510339,-0.009171460862611329,0.0003928387085513274
0.83,0.020754447914712697,0.404469950225847,0.31938829714306394,-0.0564682363056056,-0.009030079279095472,0.000385136873100056
0.84,0.021709529943635595,0.4098468990211185,0.2894133395159315,-0.05321938583165582,-0.008710132748078714,0.000379700529889378
0.85,0.022584975592287265,0.41475135805210117,0.2644696210651887,-0.050179952405948774,-0.008423917912326759,0.0003736672804458312
0.86,0.0234501372520045,0.4195628444444294,0.2432258154172473,-0.06180658773181962,-0.01069609833879705,0.000352350158178115
0.87,0.02458614706727629,0.42938587276178386,0.34883663293072686,-0.05543182042246905,-0.009792730790619337,0.0003517527628814792
0.88,0.025353943626157123,0.4329112901343968,0.31187236636753823,-0.05321391797593346,-0.009627093791315931,0.00034434782909027284
0.89,0.02636347940418479,0.43786812479629234,0.28167869267292645,-0.04992234713700087,-0.009272332833859954,0.0003394341899612029
0.9,0.027288785094317775,0.44236672820302525,0.2565232809459417,-0.046838776232456934,-0.008953331363436613,0.0003338440395463471
0.91,0.02820279070963336,0.4467793899545075,0.23507455399141008,-0.05835742893099577,-0.011336434899530807,0.000311578742725661
0.92,0.02944476491317598,0.45654334229053295,0.34045530107107425,-0.051969514860943436,-0.010368130480148284,0.000311910831968102
0.93,0.030247191334152122,0.459618981329471,0.30331637216107765,-0.04971388067326894,-0.010178064932088438,0.0003047806830530385
0.94,0.031305318958526215,0.464134545790848,0.2729476226903671,-0.04638960642328226,-0.009788354774751994,0.0003003679597698625
0.95,0.032274826390752895,0.4682062452134733,0.24762299076996896,-0.04327213623327749,-0.00943641784916875,0.0002951989875975739
0.96,0.03323214149533911,0.4721997125128885,0.22601078793371698,-0.054704448572354604,-0.011929854506719406,0.0002719895335259542
0.97,0.034578060386974106,0.48186268112308805,0.3311876567479999,-0.04830884009873471,-0.010896692160389543,0.0002732225129990456
0.98,0.03540914872624369,0.48447317663485867,0.29391478911122704,-0.04602505348003691,-0.010682095661973059,0.00026634755222175796
0.99,0.03651002402266902,0.48853318737079876,0.2634107578458611,-0.04267680534681281,-0.01025736598884313,0.00026241369928566195
1.0,0.037518084988348056,0.4921635616659398,0.2379555778375675,-0.039534401759103464,-0.009872412153379855,0.0002576446585300365
1.01,0.03851318458873796,0.4957238659328289,0.21621758566681137,-0.05090030943360327,-0.012475746896999873,0.000233512808927292
1.02,0.0399607229177124,0.5052488336425992,0.32121360536763177,-0.044501387356669045,-0.011377832107381247,0.0002356127028657209
1.03,0.04081456832416529,0.5073850868875934,0.2838437641372593,-0.042197826935102,-0.011138663781854548,0.00022897586002548127
1.04,0.04195241138853327,0.5109812546411768,0.25324054544029195,-0.0388331881910142,-0.010678900327569678,0.00022549859678962998
1.05,0.04299343247179139,0.5141616668857818,0.22768983985343993,-0.03567368257629028,-0.010260907201732335,0.00022110890818037614
1.06,0.044020843959883225,0.5172804264952369,0.20586014006340747,-0.04699153988256196,-0.012973845047956411,0.00019609360208262813
1.07,0.045567407885299845,0.526634819195404,0.3106953232290266,-0.04059275273945866,-0.011811304141360125,0.00019902118748357908
1.08,0.046438209236755214,0.5282931704396476,0.27326188256182604,-0.03827672752955481,-0.011547576969592277,0.00019260781775309627
1.09,0.047607343044886626,0.5314224057133277,0.24259203829757325,-0.03490226385185408,-0.011052814532877885,0.00018956458727300746
1.1,0.048675822778934154,0.534149241261106,0.21697734883474595,-0.03173247828653136,-0.010601811874172775,0.00018553426545742956
1.11,0.049730161629094743,0.5368229262678326,0.19508658986922,-0.04301917184673537,-0.013424184759118477,0.00015969081790503668
1.12,0.05137292126470034,0.5459782048559958,0.29977808893022484,-0.03662316185215478,-0.012197160350856304,0.00016340177018732188
1.13,0.05225501474891321,0.5471596886368058,0.26231101536211554,-0.03430102953347585,-0.011908934704328888,0.00015719948648134643
1.14,0.05344989703565638,0.549823387104853,0.23160375686614998,-0.03092240484466004,-0.011379251266479248,0.0001545673836187673
1.15,0.05454045665904874,0.5520973687303532,0.2059533281340009,-0.027748264628645318,-0.01089531508726668,0.0001508769280308443
1.16,0.055616456006585095,0.5543266404715863,0.18402890955115936,-0.03901931576626942,-0.013827070127643146,0.0001242760532565439
1.17,0.05735237432461914,0.5632579314285291,0.2885911801797647,-0.032628031532328065,-0.012535717461393371,0.00012872111930038933
1.18,0.05824026102833196,0.5639676094007506,0.25111722798953906,-0.030305304218153355,-0.012223095571841872,0.000122719586164512
1.19,0.05945551044962503,0.5661710121236674,0.220398609549477,-0.026927384091470025,-0.011658607275396972,0.00012047527597925738
1.2,0.06056291922883379,0.5679965871395465,0.1947375820421371,-0.023754018047508048,-0.011141854778379881,0.00011710554710820012
1.21,0.06165545425494516,0.5697857075713519,0.172803848315084,-0.035023674475554864,-0.01418304362958654,8.983225142818284e-05
1.22,0.0634813129936785,0.5784714701842497,0.2772488183566679,-0.02863847114560099,-0.012827527616378447,9.495745806863557e-05
1.23,0.06436968139626499,0.5787178356719824,0.2397917323904153,-0.02631990937021108,-0.012490648777223536,8.91481661465792e-05
1.24,0.06560009882919625,0.5804694583393111,0.20908485140580524,-0.022946852784715463,-0.011891505575111493,8.726780594439732e-05
1.25,0.06671929476238792,0.5818542520064085,0.1834354616292444,-0.019778682179609756,-0.01134209072585414,8.419990060773876e-05
1.26,0.06782340266529262,0.5832105571471069,0.1615139011690303,-0.031059999967173495,-0.014492859804351624,5.6352280568665406e-05
1.27,0.06973582577315778,0.591632284690502,0.26585114216715056,-0.024681727672624623,-0.013073352611550544,6.209918153429686e-05
1.28,0.07061956990011588,0.5914267327916667,0.22843186499699186,-0.022371423562904683,-0.012712388952306782,5.64752155952184e-05
1.29,0.07186015560192195,0.5927378579972942,0.197757066473514,-0.01900676399766498,-0.012078770780847622,5.4934388863695455e-05
1.3,0.07298626219015211,0.5936921873717083,0.1721388490238951,-0.015847581100884942,-0.011496880377250183,5.21495231719958e-05
1.31,0.0740971583988552,0.594625619096123,0.1502482960091811,-0.02715249801976318,-0.014757461765762703,2.383749750403305e-05
1.32,0.07609263345159482,0.6027675709355251,0.254485195902987,-0.020781579695199084,-0.013274140840497831,3.0143458534448586e-05
1.33,0.07696686732373836,0.6021239280534774,0.21712207580293352,-0.018483030391984345,-0.012889293551722721,2.469926787470643e-05
1.34,0.07821283455649447,0.6030081546615218,0.18649715684659895,-0.015129747328574753,-0.012221406914903681,2.347293488616956e-05
1.35,0.07934117421963018,0.6035445971061537,0.16092714769655458,-0.011982784683881023,-0.011607257046377696,2.0952340250148035e-05
1.36,0.08045426540185044,0.6040672876575504,0.1390839830506252,-0.023322186064354135,-0.014977959942274783,-7.703661003423625e-06
1.37,0.08252916334651646,0.6119162491205477,0.2432259175932927,-0.016958685687774717,-0.013431006380379647,-9.051411901786271e-07
1.38,0.08338923225905542,0.6108503560242617,0.20593491488085647,-0.01467485809468309,-0.013022502295575574,-6.173964038143291e-06
1.39,0.0846360178905891,0.611323199920244,0.17537532791322974,-0.01133543999731944,-0.012320577174923988,-7.111496507540579e-06
1.4,0.0857621225124755,0.6114562107714661,0.14986826435858802,-0.008203431470980621,-0.01167440999003015,-9.38666125182549e-06
1.41,0.08687301683970618,0.6115821146079892,0.12808661409735578,-0.0195872096556532,-0.015155612591272703,-3.825703097610148e-05
1.42,0.08902361034804351,0.6191271815167432,0.23213711656921987,-0.013230891954117358,-0.013545209783658191,-3.103596746926702e-05
1.43,0.08986509942856061,0.617656524380672,0.1949320056127135,-0.010964279850392129,-0.013113298247447032,-3.613289580133304e-05
1.44,0.09110837193791396,0.61773506525864,0.16445105671891724,-0.007640779645093632,-0.012377585273139105,-3.68079847622038e-05
1.45,0.09222799094746673,0.6174806394690369,0.13901957359507833,-0.004526014258750781,-0.0116996659950509,-3.885670359388242e-05
1.46,0.09333250600462514,0.6172252074460038,0.11731150273419644,-0.015963122662902424,-0.015291807745734267,-6.78039988018987e-05
1.47,0.0955549866585477,0.6244575923403106,0.2212724288597201,-0.009613505262948557,-0.013618140250440038,-6.0233539392011895e-05
1.48,0.09637372708008393,0.6226009766296947,0.18416499472095893,-0.007366179744650873,-0.013163090220476186,-6.516130667117363e-05
1.49,0.09760939232758559,0.6223035458685633,0.15377403649097232,-0.004060263743474453,-0.012393858056137474,-6.56009634112791e-05
1.5,0.09871849865606547,0.6216789188753791,0.12842885581676455,-0.0009646332200347182,-0.01168447220156232,-6.74424152865983e-05
1.51,0.09981266732041888,0.6210588101382419,0.10680455552858348,-0.012463135904957713,-0.015388046341436895,-9.632269128893829e-05
1.52,0.10210316180089135,0.6279716674484348,0.21067624413007024,-0.0061195348281332385,-0.013651298942321312,-8.84787122270738e-05
1.53,0.10289523496636796,0.6257489299596464,0.17367647132005004,-0.003893188953963702,-0.013173396286708397,-9.323949021106608e-05
1.54,0.10411944003006074,0.6250948350808305,0.14338508822930862,-0.0006061800814459173,-0.012370929193555112,-9.347135189090553e-05
1.55,0.10521423423007908,0.624118218563452,0.11813520160330881,0.0024687790587861135,-0.011630379963476904,-9.512494511953776e-05
1.56,0.10629430879080526,0.6231510459725476,0.09660316898418841,-0.009098338495806362,-0.015445926343700433,-0.0001237890706654339
1.57,0.10864889419912038,0.629739313622868,0.20038459656035457,-0.0027599078128734047,-0.013646283266572332,-0.00011574975420945306
1.58,0.10941063416239696,0.6271710684507825,0.16350084948157928,-0.0005558962367660045,-0.013145828229704849,-0.0001203453141119204
1.59,0.11061976949481092,0.6261803500856589,0.1333170346029533,0.002711187677771598,-0.012310423785910865,-0.00012039759784444865
1.6,0.11169668226000684,0.6248706987072028,0.10816987686013135,0.005764256727858168,-0.011539029606384848,-0.00012188298747699976
1.61,0.11275913700601117,0.6235748040178679,0.08673708620676734,-0.005877895685883764,-0.015467127747880723,-0.00015017793054749153
1.62,0.11517385541113742,0.6298350592276458,0.19042601493879374,0.00045633794458003335,-0.013604772012400464,-0.0001420233292185045
1.63,0.1159018497586331,0.6269424738558627,0.15366520877080347,0.0026369636658005857,-0.013082076830737848,-0.00014645518567924935
1.64,0.11709254987748302,0.6256356915795847,0.12359553124952072,0.005883375858761554,-0.012214043789733888,-0.00014635662677635374
1.65,0.11814824316429967,0.62401249721733,0.09855714502293722,0.008913620592239952,-0.011412135988467634,-0.00014769371613967803
1.66,0.11918977563075278,0.6224067526500177,0.07722920972952352,-0.00280922651023581,-0.01545339837019507,-0.00017546379152568028
1.67,0.12166064790836845,0.6283370799503585,0.18082232823957156,0.0035218807573729576,-0.01352851126153783,-0.00016727538388583392
1.68,0.12235173728995796,0.625141678083363,0.14419008973476366,0.005678340582634032,-0.012983897917298553,-0.0001715449219133255
1.69,0.12352088018394852,0.6235397218701255,0.1142398523512611,0.00890357500577534,-0.012083554194562354,-0.000171324698164643
1.7,0.12455224710484353,0.6216228322303285,0.08931504289932946,0.01191031583660623,-0.011251474804600259,-0.00017253362590294451
1.71,0.1255697781400028,0.6197264654445034,0.06809636740712222,0.00010183589499660958,-0.015406540377285803,-0.0001996216969852423
1.72,0.1280928171453269,0.6253263351779781,0.17158942391404253,0.006430958686357976,-0.013419301025732713,-0.00019148193955482578
1.73,0.1287440936158582,0.6218498233295788,0.13509024199720443,0.008562715719814804,-0.012853099131252786,-0.00019559052488829642
1.74,0.12988879901896372,0.6199737477496914,0.10526362835605596,0.011766479866216057,-0.011920769913395754,-0.00019527816883278937
1.75,0.1308929626515909,0.617783206626199,0.080456107873772,0.014749265018066258,-0.011058869599236206,-0.00019637928294812183
1.76,0.13188363543987364,0.6156156464509621,0.05935003013490814,0.002850898860830413,-0.015328397526111173,-0.00022262791125101413
1.77,0.13445485853927353,0.6208858022860309,0.1627379576518706,0.009179227531687676,-0.013278982585715835,-0.00021461979093280396
1.78,0.1350636628484267,0.6171499174650874,0.12637532300630028,0.011285962423009957,-0.012691527394577145,-0.0002185688644779562
1.79,0.13618128951533442,0.6150207961003185,0.09667553438674759,0.014468152899790594,-0.011727543367482248,-0.00021819416565917508
1.8,0.13715560075056726,0.6125767028530849,0.07198805654695661,0.01742673417321329,-0.010836179471702852,-0.00021920798611696
1.81,0.13811677890898655,0.6101574434591583,0.0509969795459142,0.005434877565735853,-0.015220843101902519,-0.0002444605232589287
1.82,0.14073221988174234,0.615099797640628,0.15427401319101364,0.011763631211954461,-0.013109426521428255,-0.00023666711434670883
1.83,0.14129613783189082,0.6111261738300788,0.11805054732860754,0.013845218954715617,-0.012501057064695622,-0.0002404582714877728
1.84,0.14238427992828429,0.6087649716746135,0.08847992909011282,0.017005899437995305,-0.011505752759377836,-0.00024005117066616148
1.85,0.14332631446390548,0.6060873578050963,0.06391441299768985,0.019940210227958766,-0.010585287469579057,-0.00024099834215531883
1.86,0.14425557931282973,0.6034358392736916,0.04303992668042156,0.007851873487406747,-0.015085768552425022,-0.00026509995978631914
1.87,0.1469112996248939,0.6080533745689287,0.14619971235418916,0.014182282847880458,-0.012912521433065432,-0.00025760398931542805
1.88,0.1474281576013814,0.6038634259447617,0.1101172863826605,0.01623877166247545,-0.012283578780317054,-0.0002612390450101508
1.89,0.1484846403097817,0.6012908878355594,0.0806774439965352,0.01937815292717422,-0.01125729103627729,-0.0002608295222518952
1.9,0.1493921948830801,0.5983996088060328,0.05623508783969555,0.022288288199251275,-0.010308089673096668,-0.0002617307586776137
1.91,0.15028734197911064,0.5955351123176911,0.03547808095305527,0.010101062475939613,-0.014925072822796075,-0.00028452941288438326
1.92,0.1529794414239366,0.5998317897681904,0.13851377630658135,0.01643435515090793,-0.012690163357957248,-0.00027741283774408124
1.93,0.1534473011912535,0.5954466088803345,0.1025736188964288,0.01846594718974282,-0.012040989003446535,-0.0002808938783775735
1.94,0.15447017562023047,0.5926831622488082,0.07326552374564699,0.021584368956295896,-0.010984055549764147,-0.0002805118368588333
1.95,0.1553412635628415,0.5895978029102356,0.04894690906809274,0.024470566938083145,-0.010006484977043435,-0.0002813878591064504
1.96,0.1562002985724259,0.5865393589921108,0.028307671229299558,0.012182591249116755,-0.014740652397650825,-0.000302735186592385
1.97,0.15892492527043445,0.5905200307609881,0.13121203782162638,0.01851997896112623,-0.012444245890432774,-0.0002960787854713651
1.98,0.15934207811707513,0.5859603001023839,0.0954148337228844,0.02052701261784564,-0.011775180264845843,-0.0002994082084859605
1.99,0.16032961559518666,0.583025970549711,0.06623891923851488,0.023624927000290685,-0.010687938419260292,-0.00029908335575047894
2.0,0.1611624617826879,0.5797657627659714,0.04204410529951019,0.026487552385821858,-0.009682365577330336,-0.00029995482419874556
2.01,0.16198359576731491,0.5765320712303179,0.021522419295649797,0.0140974813243122,-0.014534392057355093,-0.0003197069683077766
2.02,0.16473695551341705,0.5802023979584181,0.12428790771679132,0.02044014898670454,-0.012176651011438173,-0.00031358995119070093
2.03,0.1651019158220579,0.575488313568906,0.08863388586632936,0.022423082628537736,-0.011488032119460263,-0.0003167704935287062
2.04,0.16605260164746782,0.572402651938253,0.05959013456902085,0.025501039004375534,-0.010370817605362497,-0.0003165322218213192
2.05,0.1668456369135346,0.5689864031488412,0.03551874339535743,0.02834056750410469,-0.009337608167965857,-0.0003174196650077378
2.06,0.16762728109000202,0.5655957635430919,0.01511396892084349,0.015847539581735542,-0.01430815635295651,-0.0003354380303651285
2.07,0.17040564603901243,0.5689621357685137,0.1177327952106566,0.022196635971671343,-0.011889240632486371,-0.00032993766794561216
2.08,0.1707171443517813,0.5641133416423028,0.08222180877481833,0.024156032945313377,-0.011181402815869494,-0.00033297242434372564
2.09,0.17162967106548743,0.5608953614588685,0.05330982961737618,0.02721466409768345,-0.010034548696570849,-0.00033284969151660735
2.1,0.17238152614208746,0.5573413930892723,0.02936112245777167,0.03003166819569626,-0.008974065851287355,-0.0003337734322700746
2.11,0.17312228617699654,0.553811644606883,0.009072271183185876,0.01743527480370842,-0.014063781801269415,-0.0003499253674597725
2.12,0.17592200285854176,0.5568811078693336,0.11153648621586854,0.023791904664040374,-0.01158384885509842,-0.0003451166424880439
2.13,0.17617897850236153,0.5519166401368736,0.07616808286314836,0.025728419451463917,-0.01085712168024321,-0.0003480090746498201
2.14,0.17705223874744935,0.5485847643715847,0.047387180970304144,0.028768428859241246,-0.009680957409193445,-0.00034803028700613705
2.15,0.17776173778870363,0.5449108591493168,0.02356012661408613,0.031563564663406096,-0.008593560760451188,-0.00034901036726697944
2.16,0.17846040768432214,0.5412593290798906,0.003385928764032542,0.018863819658090364,-0.01380306979734758,-0.00036316977555567734
2.17,0.18127790433863922,0.5440395124645114,0.10568748020745034,0.02522903707541477,-0.011262274942716465,-0.0003591250578007834
2.18,0.18147949767330362,0.5389777523789885,0.07046096502705268,0.02714340249737575,-0.010516982211002397,-0.00036187899545008363
2.19,0.18231257669781842,0.5355497686665434,0.04181020297977511,0.030165552669373815,-0.009311832795880767,-0.00036207189375393647
2.2,0.18297873044387236,0.5317731259735226,0.018103537975378003,0.03293954775980011,-0.008197877388801018,-0.00036312799920074676
2.21,0.1836342860651874,0.528016585901181,-0.001957498341198516,0.02013685769414452,-0.013527780237069022,-0.00037517587785516936
2.22,0.18646607929939663,0.5305156337798156,0.10017328911260392,0.026511660619720157,-0.010926276997529244,-0.00037196462403575565
2.23,0.18661162364444484,0.5253742687250096,0.06508777957492384,0.02840467600203814,-0.01016273587583326,-0.0003745842588212748
2.24,0.18740379150422593,0.5218672922147061,0.03656603137613956,0.031409777768271904,-0.008928921153668666,-0.00037497580856587815
2.25,0.1880257901355764,0.518004490747126,0.012978313428391175,0.03416341996536035,-0.00778875661615605,-0.00037612719406511573
2.26,0.18863738243099504,0.5141591197610484,-0.006971223349694355,0.021258554999383037,-0.01323962583790489,-0.0003859521032922425
2.27,0.19148008319203047,0.5163856266232614,0.09498069992730507,0.027643880795805924,-0.010577566330035143,-0.0003836405830182373
2.28,0.19156909649001297,0.5111816183511753,0.06003517412977999,0.029516401027416372,-0.009796086598097952,-0.0003861304561996333
2.29,0.19231980000325444,0.507612061517726,0.03164117252651977,0.03250530371388807,-0.008533920617849343,-0.00038674674308997815
2.3,0.1928970057363255,0.503679028570625,0.008170826646392015,0.0352394306999438,-0.007367890417546651,-0.0003880121598796554
2.31,0.19346395369740366,0.49976038287824487,-0.011668997146330184,0.022233496229210795,-0.012940267141451607,-0.0003955106228508753
2.32,0.19631427256874834,0.5017233311122027,0.09009600454135125,0.028630218139285832,-0.010217802504726262,-0.0003941616713240559
2.33,0.1963464488348443,0.49647289059318034,0.05528934249099393,0.030483143562083374,-0.009418685915306299,-0.00039652665612484767
2.34,0.19705530333841148,0.4928564393380519,0.027021719866127114,0.033456725986301686,-0.008128476423672008,-0.0003973927875978357
2.35,0.19758724280921625,0.4888684261328269,0.0036670788006176736,0.03617221572473091,-0.006936917235674632,-0.00039879041301262263
2.36,0.19810902621514304,0.4848914144850447,-0.0160649036828886,0.023066624770286828,-0.012631308177116142,-0.00040386724881415816
2.37,0.2009637780442386,0.4866001150582999,0.08550519801531209,0.02947554921584354,-0.009848589041163727,-0.0004035400467589499
2.38,0.20093897865419708,0.4813186833252381,0.0508362174400645,0.031309816294973536,-0.00903212878827341,-0.00040578532622237223
2.39,0.20160575960923022,0.47767027882117397,0.022693540913110155,0.03426897852791404,-0.00771417681392131,-0.00040692533969838274
2.4,0.2020921160902911,0.4736418413331389,-0.0005471201447448948,0.03696674043181965,-0.006497417994518479,-0.0004084727101413444
2.41,0.2025683680820234,0.46962070576306303,-0.020173184260841026,0.023763186835842085,-0.012314292762607783,-0.00041104130182605743
2.42,0.20542447594779079,0.47108474174994974,0.08119414896867738,0.030185051463719373,-0.009471469746050263,-0.00041179118286516046
2.43,0.2053427208111025,0.465786976193705,0.04666163587074834,0.032001624193629,-0.008637950036028123,-0.00041392222399698307
2.44,0.20596735530425958,0.462120801953958,0.01864243706961588,0.03494728004045907,-0.007292549566961443,-0.00041535900243295674
2.45,0.2064079607971836,0.45806578675589016,-0.0044859968184596255,0.03762824684845878,-0.00605091272814318,-0.0004170729501999607
2.46,0.20683846032126807,0.45401408815926025,-0.024008088033156127,0.024328679318946826,-0.011990701413678851,-0.00041705545040235294
2.47,0.2096929588608909,0.45524326108159485,0.07714874424635809,0.03076415171931504,-0.009087925648779246,-0.0004189337358547735
2.48,0.20955441752332216,0.4499430267290716,0.042751478090963246,0.032564013725946965,-0.008237621368508493,-0.00042095626078327003
2.49,0.21013697570473888,0.44627250041395783,0.014854278660436648,0.03549708388295899,-0.006865059116904692,-0.00042271145597981455
2.5,0.21053180295105278,0.44220403508932193,-0.008163684412920702,0.03816220420459671,-0.005598857795954072,-0.0004246080504470765
2.51,0.21091646711351997,0.4381346432369426,-0.027583746025072742,0.02476880124978667,-0.011661948832893485,-0.00042193552726583155
2.52,0.21376650522306195,0.4391389222058173,0.07335500992411426,0.031218478278697774,-0.008699372510351043,-0.0004249893881286015
2.53,0.21357148794476366,0.43384928750000995,0.039091784884703884,0.03300262558201923,-0.007832548986598117,-0.00042690934295716506
2.54,0.21411217444367026,0.4301870570477817,0.011315117340870984,0.03592403143112906,-0.0064331042351922565,-0.00042900330696103175
2.55,0.21446132889152425,0.42611754477173136,-0.011594113829005437,0.038574262927642614,-0.005142643653371292,-0.00043109780055557433
2.56,0.21480020526043475,0.42204263235756656,-0.030914067110643373,0.02508940871700876,-0.011329381945138058,-0.00042571032660860864
2.57,0.2176430481942715,0.4228321059951412,0.06979921138849932,0.0315538163607879,-0.00830715887355242,-0.0004299826722878849
2.58,0.2173919970388516,0.4175653426785608,0.03566885364847394,0.033323250764656705,-0.0074240717171700854,-0.00043180619426078326
2.59,0.2178911423961205,0.41392328635536657,0.0080112785383335,0.036233908769808094,-0.005998016241078879,-0.00043425791910032147
2.6,0.2181948541615797,0.4098644042627164,-0.01479092510692226,0.03887021193851434,-0.004683593145209188,-0.0004365646983869497
2.61,0.21848811304986393,0.40579544463348327,-0.03401265264102449,0.0252964731225312,-0.01099427844606474,-0.00042841138610587114
2.62,0.22132114394418645,0.40638027577921676,0.0664679344453134,0.03177606684656649,-0.007912564620836674,-0.0004339407792876485
2.63,0.22101462391982407,0.4011478624832421,0.032469316266769965,0.03353178992499173,-0.007013459649441292,-0.00043567416283476
2.64,0.2214726760718655,0.39753709247580815,0.004929436023815015,0.03643260659706926,-0.005561057707248592,-0.0004385012287299751
2.65,0.22173129192587515,0.39349979349179165,-0.017767396407464275,0.039055939129450455,-0.004222960287878039,-0.0004410337708678958
2.66,0.22197921869610004,0.3894475617083337,-0.03689272862317239,0.025396042645044855,-0.010657845828676953,-0.00043007275722338473
2.67,0.22479993953827826,0.38983794487856827,0.0633481499789923,0.03189120817384069,-0.007516800005410917,-0.00043689335411896825
2.68,0.22443862982418628,0.3846505740767725,0.029480200431919457,0.033634215824181364,-0.006601913238098945,-0.00043854301629197645
2.69,0.22485614567413492,0.3810814432991805,0.0020566705316582556,0.03652608322276479,-0.005123421626027806,-0.0004417615483920919
2.7,0.22507012109040936,0.37707596106661967,-0.020536388127823102,0.03913739490765812,-0.0037619295058483383,-0.00044453238313925625
2.71,0.22527310850423143,0.37305053803615706,-0.03956709274888226,0.025394206790702978,-0.010321220852780968,-0.00043073076708023895
2.72,0.22807914058314838,0.37325665962040233,0.06042726365507178,0.0319052612698874,-0.00712100512059315,-0.00043887228214584687
2.73,0.22766382587718903,0.3681242476005764,0.026688976859645663,0.03363653880461998,-0.006190562838299728,-0.00044044472790595596
2.74,0.2280414629768357,0.3646063593687465,-0.0006194856894126133,0.036520330546242576,-0.004686231001376832,-0.0004440693615269783
2.75,0.2282113542709241,0.3606422160196132,-0.023110300730877498,0.03912055869049472,-0.0033016152876119793,-0.0004470900389010014
2.76,0.22836989491875626,0.35665299534803907,-0.04204807478203065,0.02529706391100242,-0.009985469421974025,-0.00043042377484995734
2.77,0.2311589787831747,0.3566849965475072,0.05769315261971997,0.0318242574054256,-0.0067262497724817905,-0.0004399114689629379
2.78,0.23069054079394302,0.35161669607042256,0.02408359414118877,0.03354477515489971,-0.005780468637686874,-0.00044141325672988755
2.79,0.23102904917499112,0.3481589163922827,-0.0031110165465975115,0.036421342898540765,-0.004250538831948097,-0.00044545711099157993
2.8,0.23115550575991684,0.34424493283280455,-0.025501044511599957,0.039011408238212,-0.0028430622265495672,-0.0004487381746327129
2.81,0.23127018459218052,0.3403006301727629,-0.04434750842108315,0.02511069156822743,-0.009651586833177534,-0.00042919192541048575
2.82,0.2340401795519753,0.3401685726123205,0.055134191363492846,0.03165420885343427,-0.006333533721337469,-0.0004400466163856873
2.83,0.23351958866796307,0.3351727880041011,0.021652502191216172,0.03336491825265123,-0.005372620950991864,-0.0004414843242092593
2.84,0.2338198028381533,0.33178326013461046,-0.00542939979197854,0.03623508863407963,-0.0038173284509693873,-0.0004459589839059414
2.85,0.2339035596227168,0.3279275686240979,-0.027720019772914384,0.038815891709837964,-0.0023872454126336786,-0.000449509950129861
2.86,0.23397504661598623,0.3240362332479485,-0.0464767128960375,0.02484111962851942,-0.009320498364396235,-0.0004270769026883266
2.87,0.23672392981261003,0.32375006724372213,0.052739267744073004,0.03140108223579877,-0.005943787257759656,-0.00043931499693621555
2.88,0.23615223696982213,0.31883447160430123,0.019384666956057117,0.03310291236875284,-0.004967940843513083,-0.00044069518960537454
2.89,0.23641506810417878,0.31552063266993,-0.007585594623549241,0.03596748435610757,-0.00338751418948313,-0.00044561069508696426
2.9,0.23645693805890433,0.31173069141132714,-0.029778104888578127,0.038539902326945645,-0.0019350711417161935,-0.0004494400375634376
2.91,0.23648598102693486,0.3078997197558664,-0.04844648344715097,0.02449430596207173,-0.008993060167324707,-0.00042412168488541776
2.92,0.239211846115861,0.3074692552007541,0.05049779097987539,0.031070774440019898,-0.005557872080685409,-0.00043775522894784426
2.93,0.23859017488608858,0.3026408094863875,0.017269576950695864,0.03276462901559995,-0.004567281050748444,-0.0004390844263089136
2.94,0.23881660322855325,0.2994094088926147,-0.009590035787709894,0.035624371659312794,-0.002961942330485306,-0.00044444927109818944
2.95,0.23881747013454468,0.29569201839274584,-0.03168565292810399,0.0381892555291565,-0.0014873779102003827,-0.0004485644110452593
2.96,0.2388048877191573,0.2919281693847253,-0.05026708823407944,0.0240761146293521,-0.008670060432595727,-0.0004203703035314265
2.97,0.24150594318567142,0.2913630491718777,0.048399692644807146,0.030669090987480396,-0.005176582445405449,-0.0004354070541801973
2.98,0.24083548210596106,0.2866280229230078,0.015297243471934507,0.03235584572136834,-0.004171427162654888,-0.0004366917008939686
2.99,0.24102654960223013,0.28348514230946975,-0.011452635177988668,0.03521149627223666,-0.0025413923227267992,-0.00044251283672259734
3.0,0.24098736100597318,0.2798464633269049,-0.03345249332653566,0.03776966850447242,-0.0010449376641306575,-0.00044692013846502434
3.01,0.2409340358525136,0.27615587522067386,-0.051948271710955396,0.02359229643187876,-0.008352220796800099,-0.0004158676080687562
3.02,0.24360860300443044,0.2754655511849613,0.04643542247606547,0.030201726734265494,-0.004800646551112949,-0.0004323111196154519
3.03,0.24289059816107184,0.2708295446263165,0.013458194914051091,0.03188222711174371,-0.0037810990423501976,-0.00043355755654505375
3.04,0.2430474013359607,0.2677806191675458,-0.013182787554910647,0.03473448948166205,-0.002126578224296933,-0.00043984040545338895
3.05,0.24296916172450445,0.26422619201049713,-0.03508793916751074,0.037286741977077494,-0.000608457273123233,-0.00044454517715879585
3.06,0.24287603386574652,0.2606144005956601,-0.05349926269104799,0.02304847170600194,-0.008040197961893123,-0.00041065903745451265
3.07,0.24552254453080735,0.25980811185100094,0.04459593892391922,0.029674248785354074,-0.004430728138972799,-0.0004285087648965281
3.08,0.24475829241088487,0.2552760791885156,0.011743467354108361,0.03134930818043702,-0.00339695245054926,-0.0004297232022813064
3.09,0.24488197550687207,0.2523259200448713,-0.01478938145282882,0.03419885172102838,-0.0017181503475954373,-0.0004364716753968973
3.1,0.2447657397164349,0.2488606850037378,-0.03660079826772744,0.036745944135192096,-0.00017858020104061473,-0.00044147817477206003
3.11,0.24463380017214487,0.24533264295856227,-0.05492878596413675,0.022450115238503016,-0.007734585499145992,-0.00040479040005307794
3.12,0.24725079413256967,0.24441939658670364,0.042872696717211056,0.029092081503273075,-0.004067428273220278,-0.00042404181666889305
3.13,0.24644163476084113,0.23999567030807967,0.010144590945060372,0.03076247963012907,-0.003019580848568376,-0.0004252303092068469
3.14,0.2465333831452865,0.23714848797595778,-0.016280812609181794,0.03360993820528429,-0.0013166970788381963,-0.00043244683179113425
3.15,0.24638025001078034,0.2337768067639523,-0.03799938760096211,0.03615259658194603,0.00024411165312834176,-0.0004377582764952057
3.16,0.24621053462514642,0.23033690398355233,-0.05624507728896333,0.02180254318361409,-0.007435915811444538,-0.0003983076628948098
3.17,0.24879665681598606,0.22932545800546933,0.04125763105378155,0.028460493493002902,-0.0037112872794130267,-0.0004189523909009199
3.18,0.24794396718264,0.2250137739379099,0.008653574354866578,0.030126975166249875,-0.002649517354329521,-0.00042012081483117596
3.19,0.24800500102839518,0.2222732023948737,-0.017665000591193802,0.03297294649537755,-0.00092274684684324,-0.0004278063571649202
3.2,0.24781610729551762,0.2189988803635856,-0.03929155003135065,0.03551186219310906,0.0006590959691339952,-0.0004334249396749734
3.21,0.2476096908071712,0.2156509650985683,-0.05745590048178428,0.02111090186234998,-0.007144662229354212,-0.00039125675119163833
3.22,0.2501636883212033,0.21454981360635728,0.03974314026322645,0.02778458644613002,-0.0033627868155593804,-0.00041328270408256125
3.23,0.24926887610021708,0.21035333661378885,0.007262886434489246,0.02944786062724469,-0.0022872368274084232,-0.00041443673633172797
3.24,0.2493004443615554,0.20772245804767664,-0.018949406666024515,0.03229290587687686,-0.0005367702174404639,-0.00042259084999522387
3.25,0.24907695884979209,0.20454876706432756,-0.04048467260986399,0.03482873476683525,0.0010659078974243046,-0.00042851775664214933
3.26,0.24883494921690286,0.20129616770114822,-0.05856856624575357,0.020380158326740852,-0.006861241218043211,-0.0003836833588283983
3.27,0.2513556681293938,0.200113528090462,0.03832206630249857,0.027069285728858774,-0.003022352053484304,-0.00040707489403924053
3.28,0.25042016570664405,0.19603487821484578,0.005965437246402416,0.028730024836661684,-0.0019331580607879078,-0.00040821999346970887
3.29,0.2504235403749666,0.19351624818586544,-0.02014105355385709,0.03157466843892707,-0.00015918209146598963,-0.00041684085256444214
3.3,0.25016665841870456,0.19044594998129938,-0.04158570643397752,0.03410803035235868,0.0014641378509459018,-0.00042307628644425215
3.31,0.24989019139110002,0.1872914973466422,-0.059589951995064894,0.019615092573741447,-0.006586014673768929,-0.0003756327703897147
3.32,0.2523765734424588,0.18603529952754272,0.036987675073874016,0.02631933260059503,-0.002690353949379675,-0.00040037085094667634
3.33,0.2514018322480327,0.18207657844993008,0.004754557849651064,0.02797817206452466,-0.0015876460585639784,-0.0004015122417222705
3.34,0.25137830290677954,0.17967225134363218,-0.021246545607311873,0.030822901741904937,0.0002096560141325119,-0.0004105966885755925
3.35,0.251089241057878,0.17670762121557715,-0.04260118693366621,0.03335438014676656,0.0018534292169707315,-0.000417139896031084
3.36,0.2507794750145065,0.17365367125599107,-0.06052652228305533,0.018820291296116495,-0.006319292290234292,-0.00036714969513625
3.37,0.25323055417580953,0.17233154875118117,0.03573363560605003,0.0255392779522532,-0.0023671115840680377,-0.00039321205899353775
3.38,0.25221803931940734,0.16849436639709836,0.0036239795164760835,0.027196815987950703,-0.0012510143804141682,-0.000394354716057051
3.39,0.2521689079887368,0.16620592104388265,-0.022272089310604315,0.030042082964653986,0.0005694336210029887,-0.00040389831095010873
3.4,0.25184889900164986,0.16334877179335905,-0.0435372545126711,0.03257222485153355,0.002233476007601533,-0.00041074761131196377
3.41,0.2515070100433947,0.1603972284636157,-0.061384349478998956,0.018000143060528533,-0.006061333976666225,-0.0003582781132102917
3.42,0.2539219089819911,0.15901651131411398,0.0345539993062971,0.024733477456273634,-0.0020528945550182124,-0.0003856394490108613
3.43,0.25287309420196635,0.15530201253000087,0.0025678133752649046,0.026390275043824383,-0.0009235275351384604,-0.00038678808565004895
3.44,0.25279967048374985,0.15313057783572503,-0.023223514062920003,0.02923649442504826,0.0009198888973389295,-0.0003967851601117241
3.45,0.2524499585659923,0.15038228378561058,-0.044399675260820004,0.03176581038339902,0.002604020466125654,-0.00040393797838456026
3.46,0.2520771358738294,0.1475346221191387,-0.06216913462253615,0.017158834806238532,-0.005812352310972888,-0.000349061134229281
3.47,0.25445506235455273,0.14610233147305252,0.03344317981657241,0.023906088023442813,-0.0017479254036306046,-0.0003776932622714374
3.48,0.2533714252694885,0.14251122254727022,0.0015805296271764746,0.025562669069480678,-0.0006054034070515774,-0.00037885231973363475
3.49,0.25327502177541206,0.14045750310387461,-0.024106292428882625,0.028410220370785826,0.0012608062350628142,-0.00038929603294880907
3.5,0.25289685812002194,0.13781902411746927,-0.04519386120449553,0.03093918483733977,0.0029648506449619387,-0.0003967489351272955
3.51,0.2524942995746349,0.13507631325460068,-0.06288622731887017,0.01630034956132149,-0.005572515012751141,-0.00033954086831599456
3.52,0.2548345428093901,0.13359915755462026,0.03239593233672622,0.023061065464995333,-0.001452382062715878,-0.0003694129255566688
3.53,0.25371756046832505,0.13013173263409783,0.0006569379706888867,0.024717917130744754,-0.00029681570038327825,-0.00037058656465840576
3.54,0.25359948854830616,0.12819603407709934,-0.024925560246913392,0.02756714494070852,0.001592013810853604,-0.0003814689625474008
3.55,0.25319412713442624,0.12566793946344745,-0.04592489016630452,0.03009619660279954,0.003315797969580197,-0.0003892176932495614
3.56,0.2527630351972787,0.12303086565967902,-0.0635406458471266,0.015428465276958436,-0.005341947422303932,-0.00032975830951572906
3.57,0.25506496216187724,0.12151523828940469,0.03140733468853796,0.022202163262061633,-0.0011664003104307381,-0.0003608369374939552
3.58,0.2539161069031737,0.11817140546543925,-0.00020783218701581063,0.023859736440276846,2.103611810027597e-06,-0.00036202903215977895
3.59,0.25377767265299944,0.11635365959605792,-0.02568613563624922,0.026710951200542957,0.0019133811443177438,-0.00037334110869675956
3.6,0.2533463663134672,0.11393615183319383,-0.04659752477209622,0.029240493537945014,0.0036567348014712618,-0.0003813806308058228
3.61,0.2528879441676679,0.11140504125428663,-0.0641370960607901,0.014546754684239016,-0.005120734973105562,-0.00031975323146304403
3.62,0.2551509959158871,0.10985701960120053,0.030472768344225187,0.02133293234829052,-0.0008900762182214896,-0.00035200276608294726
3.63,0.2539717315080958,0.10663632660445899,-0.0010183500265270595,0.022991642272939452,0.00029126184646836037,-0.000353216898737418
3.64,0.25381423206183307,0.10493611616979592,-0.026392537613162403,0.02584512116071794,0.002224816665344447,-0.00036494865908886533
3.65,0.2533582288255509,0.10262905429048175,-0.04721623103165484,0.028375523110480597,0.003987572012008343,-0.0003732731951012433
3.66,0.25287367676374295,0.10020389560327914,-0.06467998947101705,0.013658586081867825,-0.004908925646400847,-0.0003095640950833735
3.67,0.25509736474527145,0.09862924138293039,0.029587900414185242,0.020456721815360623,-0.0006234685815341935,-0.0003429467572539034
3.68,0.25388914282609143,0.09553090086544813,-0.0017789010797741867,0.02211694878877976,0.0005706031881229266,-0.00034418621598225006
3.69,0.2537138629221669,0.09394748387236973,-0.027049003570311925,0.02497293668777586,0.0025262653015114553,-0.000356326741061655
3.7,0.25323440260183183,0.09175040653897071,-0.047785195675942305,0.027504533417405004,0.004308256577871387,-0.0003649298158464618
3.71,0.25272491468442126,0.08943087313362241,-0.06517346065493257,0.012767124967256268,-0.004706532397772081,-0.0002992279680468997
3.72,0.25490881708334356,0.08783503392173486,0.028748667020295215,0.01957668045508306,-0.00036660132319294575,-0.00033370405423559804
3.73,0.253673073870031,0.0848579481749212,-0.002493504176470651,0.021238770678214346,0.0008401062951734182,-0.00033497183162158517
3.74,0.2534812826859856,0.08339028171544527,-0.027659506081079144,0.024097481224871608,0.0028177060952809113,-0.0003475093436731295
3.75,0.25297959374004364,0.08130242985959768,-0.04830834257063543,0.02663057500007182,0.004618769207597761,-0.000356383828358482
3.76,0.25244635467602805,0.07908790169430802,-0.06562138377574911,0.011875336427607125,-0.004513535546613263,-0.00028878045563380427
3.77,0.25459011279149735,0.07747601352914302,0.027951257131064722,0.018695759055841553,-0.00011946586043567846,-0.00032430852745281107
3.78,0.2533282660721614,0.07461879865555687,-0.003165927111581368,0.02036002554801984,0.001099781943691281,-0.0003256073209968327
3.79,0.25312121432641277,0.07326556217268632,-0.028227768389399444,0.023221642240848064,0.003099149859674649,-0.0003385292498391459
3.8,0.25259851095471575,0.07128590111538102,-0.04878934838359328,0.025756503374887274,0.004919122007780334,-0.00034766740655068734
3.81,0.252042693238419,0.0691754861259497,-0.06602738793048957,0.01098598821175258,-0.004329885120466411,-0.00027825564261989776
3.82,0.2541460079119595,0.06755237713207407,0.02719209756918417,0.01781671337518371,0.00011797657239689778,-0.0003147927146242148
3.83,0.25285945429831536,0.06481338652886137,-0.003799701460138749,0.019483436970801703,0.0013496707165864227,-0.00031612492864062163
3.84,0.25263837159617,0.0635730044784566,-0.028757279366686817,0.022348114331423273,0.003370636880125172,-0.0003294179782204431
3.85,0.2520958510854321,0.061700245539419996,-0.049231657222037484,0.02488498220401268,0.005209356196456282,-0.00033881150540985725
3.86,0.2515186123674962,0.059692800551403025,-0.06639487139636913,0.010101654407672106,-0.004155503147152089,-0.00026768604574977224
3.87,0.25358124047469843,0.05806299542943094,0.026467839013832872,0.016942107714461627,0.00034579265255986653,-0.00030518777068977795
3.88,0.25227135290850633,0.055440342605628246,-0.004398136717043144,0.018611538124665542,0.0015898407450313432,-0.00030655551957944866
3.89,0.25203744534740835,0.05431100646102749,-0.029251307012145844,0.02147940290004548,0.003632234669264896,-0.0003202057345052424
3.9,0.2514762856486996,0.052543627977463814,-0.04963849416839139,0.02401848703444577,0.005489539870302531,-0.000329845812618941
3.91,0.25087876632579054,0.05063777900993216,-0.06672701552190574,0.009224719654751495,-0.003990285888524318,-0.00025710257633023434
3.92,0.2529005173379506,0.04900550440556373,0.0257753429266927,0.016074319025475556,0.0005640747551442964,-0.000295523427162118
3.93,0.25156864285280633,0.04649708511106354,-0.004964332909196401,0.01774667595385517,0.0018203855081588868,-0.00029692853995452956
3.94,0.2513230908485209,0.04547677461275157,-0.029712911597812308,0.020617828349993088,0.0038840357805447067,-0.0003109213717005097
3.95,0.2507444483879073,0.04381304232747851,-0.050012878141103556,0.023159309537840365,0.00575976583139746,-0.0003207987089522461
3.96,0.2501277694211268,0.042007204390515085,-0.0670267970548366,0.008357383823937112,-0.0038341060105157865,-0.0002465345124489764
3.97,0.2521085020490421,0.04037639494303136,0.025111669508248724,0.015215541483092627,0.0007729388021746877,-0.0002858279604679397
3.98,0.2507559597608733,0.037979908453777966,-0.00550119292341833,0.016891015785121644,0.002041421696216977,-0.0002872719865263747
3.99,0.25049991612124956,0.03706641225065255,-0.03014495739250833,0.019765530723251545,0.004126155685758541,-0.00030159235901832873
4.0,0.24990492381693485,0.03550439900301683,-0.05035763358307577,0.022309562187371845,0.006020149478497678,-0.00031169723704331043
4.01,0.2492701847578438,0.03379679523352053,-0.06729699993712757,0.00750166710297029,-0.0036868146849468996,-0.00023600948030252895
4.02,0.25120980369108814,0.03217110029929415,0.024474066151469742,0.01436779146176927,0.0009725221790898029,-0.00027612816882374524
4.03,0.24983788301957688,0.029884069991936713,-0.006011433626440521,0.016046546338507255,0.0022530871415944185,-0.00027761238460714935
4.04,0.2495724712181513,0.029075005389955777,-0.03055012378183619,0.0189244747256076,0.0043587307207778,-0.000292244758922748
4.05,0.24896223672743467,0.027612610207228272,-0.050675401546129706,0.021471183311821546,0.006270826767021511,-0.0003025670781052939
4.06,0.24831051394835768,0.026001290329702442,-0.06754022628285838,0.006659415427846621,-0.003548243619287371,-0.0002255534441016794
4.07,0.250208966683374,0.02438408129634695,0.023859957174465762,0.013532912857801373,0.0011629817224179818,-0.0002664493571730366
4.08,0.24881892579098341,0.022203874343595942,-0.006497596061194599,0.015215085075108771,0.0024555388214107703,-0.000267974773949188
4.09,0.24854523846928878,0.021496706397172716,-0.03093091578421081,0.018096455081230308,0.004581916103097683,-0.0002829032118865619
4.1,0.24792084261648917,0.020131672773260334,-0.05096864985176808,0.020645942470870437,0.0065119522412304945,-0.0002934325361679105
4.11,0.2472531877417694,0.018614530929994544,-0.06775890653898387,0.005832306205510288,-0.0034182070112494184,-0.0002151907040127964
4.12,0.24911046151210314,0.017008909019011753,0.023266934086052515,0.012712582702921672,0.0013444917817678386,-0.00025681532970064447
4.13,0.24770352596070744,0.014932755321162006,-0.00696205535888339,0.014398283828142856,0.0026489509346952346,-0.0002583827021069638
4.14,0.24742262360932799,0.014324815045263506,-0.031289673252388184,0.01728310216375025,0.004795884024132574,-0.0002735909283964985
4.15,0.2467851190235404,0.013054748539964578,-0.05123968271902868,0.01983544609929513,0.006743697141446743,-0.00028431652938395053
4.16,0.24610255754953236,0.011629540415114548,-0.06795530875791655,0.005021854276555042,-0.0032965034257293607,-0.00020494390158768626
4.17,0.24791867636597686,0.010038344901985852,0.02269274659738585,0.011908317018572166,0.0015172423586279227,-0.0002472483894327663
4.18,0.24649603795556807,0.008063355148024698,-0.007407029514183705,0.013597634667323246,0.0028335130565535827,-0.00024885822478316265
4.19,0.24620894780391644,0.007551856966436787,-0.03162858018157522,0.01648588785449302,0.00500082181857278,-0.00026432968773843044
4.2,0.2455593577366244,0.006374242067508362,-0.05149064957521432,0.01904114337138082,0.006966247588531843,-0.00027524058795195795
4.21,0.24486288782266108,0.005038601273987808,-0.06813154737272953,0.004229418070363556,-0.003182917592188285,-0.00019483403213384524
4.22,0.24663790962442533,0.003464418125709301,0.0221352940954489,0.011121476863769863,0.0016814373238936827,-0.00023776934442804745
4.23,0.24520072543054994,0.00158760099289168,-0.007834587734123488,0.012814475950115279,0.0030094283711542256,-0.00023942191266729197
4.24,0.24490844050872873,0.0011696593693599766,-0.03194967263198123,0.015706131582051815,0.005196930212567934,-0.0002551398430914346
4.25,0.24424775782017072,8.187559075167883e-05,-0.05172355301397147,0.01826433224036418,0.007179802847297507,-0.0002662248581983527
4.26,0.24353834926382767,-0.0011666706400959015,-0.06828959154603353,0.0034562059086522476,-0.003077222121119324,-0.00018488046347946423
4.27,0.24527236318183654,-0.0027214998565838755,0.02159261811129909,0.010353274532979882,0.0018372927154855874,-0.0002283975200659402
4.28,0.24382175476400647,-0.004503221333607144,-0.008246658254051908,0.012049998516903372,0.003176911984818013,-0.000230092864276017
4.29,0.24352523314119523,-0.004830576076919613,-0.03225484665136946,0.014945006500817298,0.005384421651945755,-0.0002460403324602078
4.3,0.24285441946214625,-0.005831238873987843,-0.05194025689547743,0.0175061656111242,0.007384573669988402,-0.00025728811236286656
4.31,0.24213301282549615,-0.006995254708819232,-0.06843127248856717,0.002703282416798061,-0.0029791791387364115,-0.0001751009605938367
4.32,0.24382613656226404,-0.008528623678394354,0.021062894788315134,0.009604779863757297,0.0019850351169381783,-0.00021915077694214106
4.33,0.2423631893477829,-0.0102183965777769,-0.008645035372012444,0.011305251990420179,0.0033361893200240527,-0.0002208887243089821
4.34,0.2420633535238359,-0.010458203272278865,-0.03254586538048443,0.014203545769371172,0.0055635187112208564,-0.00023704869497894018
4.35,0.2413833385705999,-0.011374530286545337,-0.052142493096596354,0.016767657607593082,0.007580780720513398,-0.0002484477636347469
4.36,0.24065084446522889,-0.012456657074721988,-0.06855829102647704,0.0019715750056050942,-0.0028885418394770813,-0.00016551171553276847
4.37,0.24230322179685793,-0.013966685359356745,0.020544428487312416,0.008876926617158273,0.0021249001173820024,-0.00021004553388804457
4.38,0.2408289846156375,-0.01556771219934916,-0.009031386412061693,0.010581151143002496,0.0034874945906787896,-0.00021182570704082534
4.39,0.24052672107144346,-0.01572306463248907,-0.03282436590978932,0.013482648892823598,0.005734452583682397,-0.00022818109212635474
4.4,0.2398384021096156,-0.016557902333680374,-0.052331868509725155,0.016049689899511797,0.007768653079652286,-0.00023971988599318594
4.41,0.23909570063151975,-0.01756084507587019,-0.06867222371198523,0.0012618803893240625,-0.002805055956337247,-0.00015612738219053502
4.42,0.24070749901961008,-0.01904586862000457,0.02003564500085986,0.008170518897033442,0.0022571308529129447,-0.00020109679564027974
4.43,0.23922298378775686,-0.020561393538898187,-0.009407257977045447,0.009878482298311956,0.0036310693585944335,-0.00020291862427968896
4.44,0.23891914267659686,-0.020635427060433642,-0.03309186542566067,0.012783088096228426,0.005897461652457461,-0.00021945233340055326
4.45,0.23822338412804456,-0.02139167010195564,-0.05250987126004247,0.015353018056167735,0.007948426831070415,-0.00023111923841393677
4.46,0.2374713244190918,-0.02231818469144997,-0.06877452964459962,0.0005748711087374004,-0.0027284611494257146,-0.00014696111535372644
4.47,0.2390427327503275,-0.02377674622078274,0.019535085904465177,0.007486237577269302,0.0023819766289842085,-0.00019231818469793018
4.48,0.2375489142969478,-0.025210041960654905,-0.009774081988211947,0.009197909737092985,0.0037671611707498186,-0.00019418091743442803
4.49,0.2372443092679699,-0.02520592090160534,-0.03334976739211015,0.012105514699104633,0.006052790142071912,-0.0002108759060131917
4.5,0.23654194244548954,-0.02588649982815383,-0.05267787656748624,0.014678277897631837,0.008120343727616088,-0.00022265929301473148
4.51,0.23578134239365944,-0.026739380958318293,-0.06886655611992865,-8.889796899629217e-05,-0.0026584923134841676,-0.00013802461356836253
4.52,0.23731256883152696,-0.02817022034307115,0.0190414025880159,0.0068246467088933635,0.0024996916230879693,-0.00018372197691854354
4.53,0.23581038484543626,-0.02952457603733194,-0.010133181156390947,0.008539982079348338,0.003896022276555569,-0.00018562469324590668
4.54,0.23550579299813634,-0.02944548192385099,-0.033599367021963644,0.011450465463874696,0.006200686849697651,-0.0002024640081753041
4.55,0.2347976159589038,-0.03005335155847888,-0.05283715275083978,0.014025991816748963,0.00828464993703059,-0.00021435226672431016
4.56,0.23402926201843144,-0.030835421402919394,-0.06894954431402311,-0.000728983199328511,-0.002594880805408697,-0.00012932816534892705
4.57,0.23552053197484213,-0.032237465981133084,0.018553351281980213,0.006186199881634576,0.002610533666707441,-0.00017531914041890936
4.58,0.23401088308006024,-0.03351617579028243,-0.010485774737389875,0.007905138617974481,0.0040179084240620395,-0.00017726076275328436
4.59,0.23370704502312378,-0.033365296254750376,-0.03384185689014885,0.010818368893663811,0.006341403954980039,-0.00019422758556140112
4.6,0.23299382254649004,-0.03390342490749987,-0.05298886613047671,0.01339657504775726,0.008441594865932774,-0.00020620915607358903
4.61,0.2322184696623708,-0.03461752243527627,-0.06902463479008247,-0.001345045781111217,-0.0025373555931074328,-0.00012088069827717601
4.62,0.23367002389251823,-0.03598987737607473,0.01806978751517363,0.005571246517113916,0.002714763105228138,-0.00016711937736297943
4.63,0.2321537738270152,-0.03719622985620674,-0.010832983150521613,0.007293715581438426,0.004133077733762562,-0.00016909868308229327
4.64,0.23185139385040188,-0.036976748387651526,-0.03407833187196729,0.010209551457411769,0.006475195907070125,-0.00018617637055401553
4.65,0.23113385751560855,-0.03744810767702944,-0.05313408653506713,0.012790341859878183,0.008591430060653722,-0.00019823977472257636
4.66,0.23035222916023557,-0.03809707870949808,-0.0690928724367268,-0.0019368454697541917,-0.002485644327255527,-0.00011268983055788659
4.67,0.23176432195626262,-0.03943901743852507,0.017589661531758338,0.004980038073225833,0.0028126417342588536,-0.0001591311682367037
4.68,0.23024229786061667,-0.04057628570031113,-0.011175833378729294,0.006705952305451331,0.004241789648404317,-0.00016114680165992118
4.69,0.22994204421200592,-0.04029137208316769,-0.03430979418794777,0.00962424372259728,0.00660231838724637,-0.00017831892388735517
4.7,0.22922089257138012,-0.0406989275258951,-0.05327379209774108,0.012207511656550034,0.008734408183278497,-0.00019045279335251001
4.71,0.2284336808755505,-0.04128561541083542,-0.06915521147732306,-0.002504234400958925,-0.0024394743377419165,-0.00010476192461996865
4.72,0.22980657839122287,-0.04259657014227258,0.0171120134595526,0.0044127341415888584,0.002904431810594664,-0.00015136181822767559
4.73,0.22827957118387587,-0.04366800272936899,-0.011515263373951257,0.006141997295867877,0.004344303957017834,-0.0001534123024783019
4.74,0.2279820764194973,-0.04332080421054485,-0.03453715798684698,0.009062586378122264,0.0067230273453112045,-0.00017066267832606687
4.75,0.22725797527156644,-0.04366750643303163,-0.05340887387461635,0.011648214963192174,0.008870782061048884,-0.00018285578156954213
4.76,0.22646584124208502,-0.04419474346040175,-0.06921252026614866,-0.003047151041104571,-0.002398573556774213,-9.710214237216686e-05
4.77,0.22779981991849496,-0.04547429578227735,0.01663596876255724,0.003869408422057053,0.0029903951358672045,-0.00014381750534647584
4.78,0.22626858475760514,-0.04648310833132996,-0.011852126640121696,0.005601914167148137,0.0044408798911816,-0.0001459012540492549
4.79,0.22597444619743,-0.04607674143564111,-0.03476125410628583,0.008524636131983575,0.006837578107759301,-0.00016321398403319618
4.8,0.22524802893109097,-0.04636551813597123,-0.05354014064096191,0.011112499288446953,0.009000803807099621,-0.00017545525148360486
4.81,0.22445160275497145,-0.046836117491011464,-0.06926558572928343,-0.0035656142782992516,-0.0023626713707821847,-8.971450174441196e-05
4.82,0.2257469478572638,-0.04808398919031731,0.016160733977699238,0.0033500545603217333,0.0030707922107684428,-0.00013650332994585282
4.83,0.22421220467583325,-0.049033356672723016,-0.012187196709589898,0.00508568744270779,0.004531775291390718,-0.00013861865871021644
4.84,0.22392198492315885,-0.048570899826572145,-0.03498283430047877,0.008010371470326526,0.006946224555572285,-0.0001559781552996601
4.85,0.22319385293734229,-0.04880464825163244,-0.05366832308340008,0.010600334845782424,0.009124724010361308,-0.00016825670264382616
4.86,0.22239373436594434,-0.04922139665630709,-0.06931511776997468,-0.00405971766621529,-0.002331499403391531,-8.260193416785564e-05
4.87,0.223650738626624,-0.050437440650696885,0.01568559238052103,0.0028545918365038454,0.00314588145759195,-0.00012942336531350117
4.88,0.2221131727453418,-0.05133049043593019,-0.012521171441903789,0.0045932282053499935,0.00461724584125666,-0.00013156850296185238
4.89,0.22182740026632786,-0.05081497702619231,-0.03520257550349015,0.007519698266313718,0.007049218369352088,-0.00014895951832617676
4.9,0.22109812347848035,-0.05099655721707563,-0.053794078134217216,0.010111620124162612,0.009242790992324569,-0.00016126466803003292
4.91,0.22029488226049665,-0.0513622081754761,-0.06936175363847497,-0.004529623831050447,-0.002304792231847652,-7.576634266837923e-05
4.92,0.22151384461599477,-0.052546399613717654,0.01520989986403265,0.002382870694394295,0.0032159185087339325,-0.00012258070903387703
4.93,0.2199741074271344,-0.05338620506556424,-0.01285467686074071,0.0041243795876929395,0.004697544367169009,-0.00012475380853723187
4.94,0.21969327719695286,-0.052820617355564536,-0.03542108412801781,0.0070524552289486465,0.007146808339414438,-0.0001421614597676325
4.95,0.2189633945937075,-0.05295284584150295,-0.0539179932346201,0.009646187298165243,0.009355250128276595,-0.00015448276081787339
4.96,0.21815757098808675,-0.053270113458125934,-0.06940606198213572,-0.004975559050311254,-0.0022822880393772275,-6.920866027019417e-05
4.97,0.21933879543523105,-0.054422541078125164,0.01473308103072668,0.001934678102632822,0.003281155558689996,-0.00011597753483432233
4.98,0.21779750510875218,-0.055212115839253784,-0.01318827145269097,0.003678922094118731,0.004772920200947018,-0.00011817668392187847
4.99,0.21752207932657086,-0.05459937930218928,-0.0356388999733781,0.006608419183573723,0.007239239738366219,-0.00013558647576816522
5.0,0.21679209956770862,-0.0546850235139118,-0.05404059010061246,0.009203807469493295,0.009462343230520906,-0.0001479137216533664
5.01,0.21598420491875103,-0.05495657685372635,-0.06944854689550084,-0.0053978080105732355,-0.002263729206017232,-6.292890842808992e-05
5.02,0.21712799943340855,-0.05607743451818692,0.014254625249066066,0.0015097427406295643,0.0033418407770332186,-0.00010961514465010208
5.03,0.21558574170965628,-0.05681972737647811,-0.013522450004188613,0.0032565787472712375,0.004843618602958501,-0.00011183837606377618
5.04,0.21531615054470876,-0.05616270572161852,-0.03585649999138241,0.006187310177252265,0.0073267537536389465,-0.0001292362212342799
5.05,0.21458655263151272,-0.05620447889320701,-0.05416232891519712,0.0087841957332934,0.00956430799104545,-0.00014155946619074042
5.06,0.21377706996617007,-0.05643293687462858,-0.0694896518282917,-0.005796708749980294,-0.002248862840528512,-5.6926255227715986e-05
5.07,0.21488374554845535,-0.05752251539981046,0.013774082852080483,0.0011077400034267444,0.0033982177797855714,-0.000103494020662721
5.08,0.21334107455972529,-0.05822040569647413,-0.013857647296333653,0.002857020053485057,0.004909880243119538,-0.00010573932203114569
5.09,0.21307771693734878,-0.05752189642826977,-0.03607430244301213,0.005788796403574607,0.007409586977390928,-0.00012311155911158406
5.1,0.21234895091648553,-0.057522453005276475,-0.054283611774508245,0.008387016063999239,0.009661377481052983,-0.00013542113266502652
5.11,0.21153833560383362,-0.05771037985269345,-0.06952976331575655,-0.006172647789931299,-0.0022374412560115884,-5.1199073114607585e-05
5.12,0.21260820540325298,-0.0587690590236889,0.013291061407016969,0.0007282968209828371,0.003450525156581165,-9.761387708441511e-05
5.13,0.21106564451534027,-0.05942535270087035,-0.014194241870768565,0.0024798687828162967,0.0049719407371700535,-9.987920039508835e-05
5.14,0.21080888895630423,-0.05868808312214924,-0.03629267020244242,0.0054124989426983065,0.007487970951176481,-0.00011721260944852397
5.15,0.21008137666145288,-0.05865001473814857,-0.054404786808959216,0.008011886016682191,0.009753779704744626,-0.00012949912928881635
5.16,0.20927005711657287,-0.05879991597623757,-0.06956921478007416,-0.00652605545921277,-0.0022292223918858965,-4.574499593289567e-05
5.17,0.21030343561712073,-0.05982815679317355,0.012805222304734798,0.0003709962885498786,0.0034989960509870036,-9.197371148068568e-05
5.18,0.2087614783330416,-0.060445582859003366,-0.014532559617919105,0.002124704560492988,0.005030030235596056,-9.425698213233646e-05
5.19,0.20851166380841946,-0.05967220672253859,-0.0365119146295001,0.005057996313567313,0.0075621317627565625,-0.00011153879804884741
5.2,0.20778579963520727,-0.05959803863753166,-0.05452615148726636,0.007658381240991664,0.009841737204737435,-0.00012379318127924186
5.21,0.20697417804305118,-0.05971235739643532,-0.06960828994095891,-0.0068574014127602565,-0.0022239701848787465,-4.056097507434344e-05
5.22,0.20797138036154905,-0.06071069471147439,0.012316277064883252,3.5382105881905275e-05,0.0035438577913541906,-8.6571855440781e-05
5.23,0.20643049122970325,-0.061291902255788955,-0.014872877294180853,0.001791068267668446,0.005084373062574697,-8.887098086143886e-05
5.24,0.20618792804905084,-0.060484996762255605,-0.03673229890921448,0.004724828836297365,0.0076322896924326256,-0.0001060889045309563
5.25,0.20546407975441383,-0.060377184780691096,-0.05464795602705408,0.007326039805809323,0.009925466716500759,-0.00011830237733834604
5.26,0.2046525328225357,-0.060458298722920745,-0.06964722651048305,-0.007167190346217633,-0.0022214548916798423,-3.56433345578526e-05
5.27,0.20561387408246645,-0.06142733402825229,0.011823984031877899,-0.00027903717599596194,0.0035853315695698355,-8.14060244234705e-05
5.28,0.20407448962256325,-0.06197488970016707,-0.015215425790415793,0.0014784662503318192,0.005135187402320898,-8.371890224298859e-05
5.29,0.20383946034208122,-0.06113695305565159,-0.036954041497949675,0.00441250280367637,0.0076986589062910254,-0.00010086110962975262
5.3,0.20311796987915187,-0.06099788082636337,-0.054770407089677065,0.00701436633367425,0.010005178869203157,-0.00011302521542603629
5.31,0.20230684961930478,-0.061048099428973046,-0.06968621931946473,-0.007455957906580434,-0.0022214533658729083,-3.098782487787275e-05
5.32,0.20323264436905575,-0.06198849396454875,0.011328145035349735,-0.0005727841008402223,0.0036236321651187337,-7.647336662269773e-05
5.33,0.20169517404688975,-0.062504879885239,-0.015560393507030312,0.0011863743360979646,0.005182685030253006,-7.879789239146922e-05
5.34,0.20146793437980648,-0.06163832922290169,-0.0371773194274283,0.004120494461579303,0.007761447193785437,-9.585304159224114e-05
5.35,0.20074911873502188,-0.06147030604530812,-0.05489367069344553,0.00672283594488393,0.01008107793040781,-0.00010795964768048761
5.36,0.19993875327362076,-0.06149186828174891,-0.06972542372807311,-0.007724266798397264,-0.002223749291746898,-2.6589675478020346e-05
5.37,0.2008293150068674,-0.06240433642723531,0.010828602263757148,-0.0008464084456406354,0.0036589677118777668,-7.177051071389514e-05
5.38,0.19929414216690589,-0.0628919485556878,-0.015907929729053194,0.0009142416593978971,0.0052270710864101245,-7.410458516238936e-05
5.39,0.19907492194271015,-0.061999118248223795,-0.03740227136006524,0.00384825379888438,0.007820855747101636,-9.106182153397491e-05
5.4,0.19835907399512465,-0.061804377242680175,-0.05501787562423033,0.0064508980119397505,0.010153361592069868,-0.00010310312435603116
5.41,0.1975497683703864,-0.06179944969098017,-0.06976495864563503,-0.007972703084258764,-0.002228133377528231,-2.24436457233647e-05
5.42,0.19840540910864846,-0.06268475263304651,0.010325235066943605,-0.001100483550321306,0.0036915395051229094,-6.72936123575816e-05
5.43,0.19687289196212987,-0.06314589946931903,-0.016258147219616603,0.0006614942962982272,0.005268543888613428,-6.963514819385592e-05
5.44,0.1966618960502764,-0.062229039894390326,-0.03762900078640996,0.0035952081481752927,0.007877078979807599,-8.648410763834287e-05
5.45,0.19594928543975598,-0.06200973650116737,-0.05514311638421532,0.006197979725693468,0.010222220795348213,-9.845263666296055e-05
5.46,0.1951413224499099,-0.061980411780737654,-0.06980490969255015,-0.008201872677664045,-0.0022344035105447257,-1.8544074261095622e-05
5.47,0.1959623523584142,-0.06283935147344266,0.009817957078439576,-0.0013356028368909202,0.003721541846264171,-6.303839935173171e-05
5.48,0.1944328249647853,-0.06327625318824914,-0.016611125701615492,0.00042753871081992927,0.005307294782900012,-6.538532759675391e-05
5.49,0.1942302342250457,-0.06233752979589724,-0.03785757890284458,0.003360765599138018,0.007930304382335088,-8.211613809481588e-05
5.5,0.19352110823156465,-0.06209574066495804,-0.05526945610512257,0.005963489475173193,0.01028783959179385,-9.400475840770674e-05
5.51,0.19271474924753562,-0.06204403627307897,-0.06984533207798904,-0.008412398025761821,-0.0022423648767513384,-1.4884926674749876e-05
5.52,0.19350147636210124,-0.06287744967359288,0.00930671333776445,-0.0015523765156656372,0.0037491619228985284,-5.9000215339103324e-05
5.53,0.19197524957936807,-0.06329223752210567,-0.01696691441566145,0.00021176501519005412,0.0053435080288345505,-6.135049120167225e-05
5.54,0.1917812218210635,-0.06233373026631739,-0.03808804748928196,0.00314431822712201,0.00798071241190849,-7.795377268622874e-05
5.55,0.19107580624178055,-0.06207145250236579,-0.05539692939038332,0.005746820043598992,0.010350395038540502,-8.975568634483157e-05
5.56,0.19027129206206084,-0.061999309872717845,-0.06988625319337416,-0.008604914978964182,-0.002251830047011086,-1.1459841352024345e-05
5.57,0.191024022024866,-0.06280806346126155,0.008791477412728455,-0.0017514284756803226,0.0037745797218124884,-5.5174061988789783e-05
5.58,0.18950138449991272,-0.06320277958771214,-0.01732553496225364,1.3550046959157893e-05,0.005377360717341677,-5.752567028425128e-05
5.59,0.1893160554167217,-0.06222648265996611,-0.03832042153817383,0.0029452451398206663,0.008028476414583288,-7.399253294773269e-05
5.6,0.18861455544305628,-0.06194563332506675,-0.05552554501520035,0.005547351623593204,0.0104100571251779,-8.570127916501039e-05
5.61,0.1878121071285932,-0.06185491727705994,-0.06992767566771363,-0.00878006984395509,-0.002262619032436417,-8.262173500048499e-06
5.62,0.18853114299721696,-0.06263990186994306,0.00827224887700595,-0.0019333933559393234,0.0037979679726527,-5.155463958474418e-05
5.63,0.18701236212725902,-0.06301649940532172,-0.017686983859732663,-0.0001677397336305004,0.005409022718799034,-5.3905599703395246e-05
5.64,0.18683584624978877,-0.06202432122570656,-0.038554692025627446,0.002762915345471825,0.008073762577146534,-7.022764083254087e-05
5.65,0.1861384473422767,-0.061726737117240305,-0.055655288555556126,0.005364454655012434,0.010466988730074192,-8.183709505505856e-05
5.66,0.18533826705580125,-0.06161923561620597,-0.06996957949922944,-0.008938516616239211,-0.002274559311028967,-5.285037255086495e-06
5.67,0.18602390916555578,-0.06238136143643658,0.0077490507166544376,-0.0020989137937791275,0.0038194921200465116,-4.813638596582427e-05
5.68,0.18450923205071135,-0.06274170477382768,-0.01805123517328866,-0.0003327455222680439,0.005438656659183683,-5.048475639864437e-05
5.69,0.18434162366576246,-0.06173546834631338,-0.03879082822066948,0.0025966904463458774,0.008116729906694048,-6.665405583122288e-05
5.7,0.18364849243779346,-0.061422906103558716,-0.05578612459089527,0.005197492489198338,0.010521345603976613,-7.815842777720222e-05
5.71,0.18285076427426716,-0.061300330171931705,-0.07001192479094698,-0.009080914388032107,-0.002287485827788054,-2.5213458461817017e-06
5.72,0.1835033101338368,-0.06204052223957035,0.0072219268432149875,-0.0022486378462628475,0.0038393103220272307,-4.4913513773457706e-05
5.73,0.18199296453413893,-0.06238638770028615,-0.018418242717643807,-0.00048211362108614014,0.005466417922145671,-4.7257396204546925e-05
5.74,0.1818343386128518,-0.06136783109234045,-0.039028780065564206,0.002445927161620785,0.008157530235769147,-6.326651050192632e-05
5.75,0.18114562368332088,-0.06104196755174485,-0.05591799951076837,0.005045823883758949,0.010573276378794808,-7.466034122541577e-05
5.76,0.18035051449594164,-0.060905951473344544,-0.07005465395337751,-0.009207924926987809,-0.002301240970364573,3.615021653560562e-08
5.77,0.1809702587518558,-0.06162514520902107,0.006690940068665441,-0.002383216580241939,0.003857573472707162,-4.1880045973940934e-05
5.78,0.1794644539865331,-0.06195822187748945,-0.01878794250842475,-0.0006164930566836665,0.005492454674970932,-4.421758895019796e-05
5.79,0.17931486711475486,-0.06092899904608373,-0.03926848059165877,0.0023099796840226677,0.008196308251047151,-6.005954437944521e-05
5.8,0.17863069995627257,-0.06059143172976178,-0.0560508431846074,0.004908805332270866,0.010622922599566842,-7.133770242657694e-05
5.81,0.1778383601935829,-0.060443533529408455,-0.07009769376509212,-0.00932021042103035,-0.002315674522269374,2.394826946944953e-06
5.82,0.17842559457470486,-0.06114267071311019,0.006156169547466561,-0.0025033018264617544,0.0038744252472115402,-3.9029849632214446e-05
5.83,0.1769245224858551,-0.061464561467161616,-0.01916025475168226,-0.0007365333610303952,0.005516907916458938,-4.13592518221717e-05
5.84,0.17678401373011354,-0.06042624318247647,-0.03950984783784861,0.0021882018748475953,0.008233201543607861,-5.7027536240245894e-05
5.85,0.17610450951721646,-0.060078491124215816,-0.05618457144862532,0.004785793233523759,0.010670418777665391,-6.818521296343848e-05
5.86,0.17531507401802315,-0.059920193207219086,-0.07014095764645845,-0.009418431384337053,-0.0023306435955569704,4.562152689955367e-06
5.87,0.17587008739106125,-0.0606002180703058,0.005617709106786606,-0.0026095440928968587,0.0038900021669748056,-3.635666792347119e-05
5.88,0.17437392320740486,-0.060912440869032025,-0.019535086011046587,-0.0008428825104309678,0.005539911544838245,-3.867618097829063e-05
5.89,0.17424251501640953,-0.05986651597567061,-0.03975278680456995,0.0020799493021750794,0.008268340678934819,-5.416473470982407e-05
5.9,0.17356777344712526,-0.05951002060911037,-0.05631908788217288,0.004676145905115073,0.010715892463402918,-6.519743880501582e-05
5.91,0.17278136222653728,-0.05934273059615691,-0.07018434740047041,-0.009503244719357186,-0.002346012544817243,6.545655929243754e-06
5.92,0.17330444064711514,-0.060004586295292484,0.005075665008291708,-0.002702590632309534,0.0039044336835807325,-3.385415037757677e-05
5.93,0.1718133438854963,-0.0603085756178956,-0.019912330984084292,-0.0009361850175507867,0.00556159244391679,-3.616208140811865e-05
5.94,0.17169104292502624,-0.05925645228721521,-0.03999719154990089,0.0019845811272471187,0.008301849284857138,-5.146528720665782e-05
5.95,0.17102114905132026,-0.058892578636005055,-0.056454285619622624,0.004579225446363055,0.010759464336267472,-6.236883853801668e-05
5.96,0.17023786809566843,-0.058717630375682006,-0.0702277551312136,-0.0095753019296184,-0.00236165286424031,8.352895086297904e-06
5.97,0.17072929488382016,-0.05936225567992892,0.004530154384951857,-0.0027830836589124684,0.003917842279410917,-3.151588135927669e-05
5.98,0.16924341017521272,-0.0596593640711518,-0.020291874278655087,-0.0010170801713894476,0.005582070585748048,-3.381059504397535e-05
5.99,0.16913020821629488,-0.05860237139110325,-0.040242946752755415,0.0019014618441134349,0.008333844155732085,-4.8923267224882215e-05
6.0,0.16846523321234486,-0.05823240932123497,-0.05659004923330713,0.004494399455630247,0.010801248311104256,-5.9693790000311796e-05
6.01,0.1676851752430153,-0.05805106407130722,-0.07027106487811352,-0.009635247477971029,-0.0023774430694205474,9.991430293248027e-06
6.02,0.16814523109420776,-0.05867939026238389,0.003981303393629787,-0.002851658708898759,0.003930343583443991,-2.9335406794646345e-05
6.03,0.1666646890630119,-0.058970890108867025,-0.020673592153741538,-0.0010862004199743136,0.005601459148172809,-3.1615327133575845e-05
6.04,0.16656056375463635,-0.057910279691597566,-0.04048992938265883,0.0018299628777364806,0.008364435371248192,-4.653269996467977e-05
6.05,0.16590056570731093,-0.05753544534137234,-0.05672625604802306,0.004421042607233674,0.01084135165864064,-5.716661532433272e-05
6.06,0.16512381093125583,-0.057348893109931964,-0.07031415421465681,-0.00968371728484052,-0.002393268565482363,1.1468797115035781e-05
6.07,0.1655527740629381,-0.0579618411222782,0.0034292456518869585,-0.002908943139524568,0.003942046500645699,-2.7306259160879598e-05
6.08,0.16407769210413647,-0.05824892654437974,-0.02105735404711595,-0.0011441698904778104,0.0056198646456945365,-2.956987089199522e-05
6.09,0.16398260782146679,-0.057185874267062786,-0.04073801015636036,0.001769464045829837,0.008393726428316053,-4.4287586325835734e-05
6.1,0.1633276324719546,-0.056807311681339456,-0.05686277791738803,0.004358538093205798,0.010879875138837427,-5.478160440436091e-05
6.11,0.16255424930111673,-0.056616672585718675,-0.07035689563394953,-0.009721337361025432,-0.0024090215030514953,1.279248218969248e-05
6.12,0.16295239561703312,-0.05721515046630543,0.002874120923479495,-0.002955554761392095,0.003953053353445309,-2.5421980762703357e-05
6.13,0.1614828787221967,-0.05749893923656657,-0.021443023889844426,-0.0011916030414228734,0.0056373870721964725,-2.7667830456659262e-05
6.14,0.16139678729043538,-0.05643454718651242,-0.04098705510102718,0.0017193548897359663,0.008421814384581791,-4.2181925285760726e-05
6.15,0.16074686879807842,-0.05605332990654688,-0.056999482431763226,0.004306278935181546,0.010916913145619156,-5.253303680744757e-05
6.16,0.1599769145643748,-0.05585965583421171,-0.07039915782769413,-0.009748722569542855,-0.002424600623484435,1.3969900749945404e-05
6.17,0.1603445178322005,-0.05644455628228684,0.0023160735906913033,-0.002992100598544047,0.003963460033897607,-2.3676145324325465e-05
6.18,0.15888065930891315,-0.05672609193929645,-0.021830461562899472,-0.001229103441606563,0.005654120054121307,-2.590284217452187e-05
6.19,0.15880350081598493,-0.0556613903768266,-0.041236926584531375,0.0016790358796786304,0.008448790012190548,-4.0209734688531136e-05
6.2,0.15815866244217602,-0.055278523234392196,-0.057136234161703214,0.004263669171737266,0.01095255386162479,-5.0415202152882735e-05
6.21,0.15739218410359967,-0.05508279947719075,-0.07044080714280199,-0.009766475511019631,-0.0024399110947104855,1.5008375983712557e-05
6.22,0.15772951613701736,-0.055654997721532595,0.0017552515529928314,-0.0030191757709696143,0.003973356165194575,-2.20623779307791e-05
6.23,0.15627139840823645,-0.05593525171931901,-0.022219523962974108,-0.0012572626703667958,0.0056701510127858895,-2.4268594255686128e-05
6.24,0.1562031018798038,-0.054871201111694745,-0.04148748473653541,0.0016479194997340348,0.00847473796049505,-3.83650704762785e-05
6.25,0.15556335670297017,-0.0544876221209023,-0.057272895723770034,0.004230124926490768,0.010986879421692516,-4.842241898963066e-05
6.26,0.15480039148751956,-0.05429076911589448,-0.07048170850509905,-0.009775185527157957,-0.0024548643389540534,1.5915120186712713e-05
6.27,0.15510772239935022,-0.05485112092529221,0.001191805054645556,-0.003037362494152835,0.00398282527127156,-2.0574373357010994e-05
6.28,0.1536554176650995,-0.0551309948892964,-0.022610066139350238,-0.0012766593338464469,0.005685561334597394,-2.2758844831702237e-05
6.29,0.15359590180619165,-0.05406848806899234,-0.04173858826561627,0.001625431217831915,0.008499736926486368,-3.664204439854575e-05
6.3,0.15296125338348787,-0.05368507034475556,-0.057409329095037265,0.004205075362254645,0.01101996608386735,-4.654905220541158e-05
6.31,0.1522018294508598,-0.05348794548609703,-0.07052172634303133,-0.00977542781683069,-0.002469377853539489,1.6697217656182736e-05
6.32,0.1524794278617847,-0.05403728547292985,0.0006258857254692884,-0.0030472291903111733,0.003991944953322297,-1.9205912827034748e-05
6.33,0.151032998809697,-0.05431761343821506,-0.023001942501821304,-0.001287858191931555,0.0057004265479951724,-2.136743846114912e-05
6.34,0.1509821726752847,-0.0532574777700745,-0.04199009556060673,0.001611010346074357,0.008523859831788336,-3.503484023882937e-05
6.35,0.15035261568208114,-0.05287503155315676,-0.05754539618152421,0.004187963526500169,0.011051884406791059,-4.4789529004683457e-05
6.36,0.1495967527631592,-0.052678431119446145,-0.07056072568900618,-0.009767762659393766,-0.002483375025890652,1.7361609270862445e-05
6.37,0.14984488603264623,-0.05321757110543501,5.764540844666044e-05,-0.0030493297060117854,0.0040007870721198045,-1.7950879248991786e-05
6.38,0.14840438650853827,-0.05349912190588668,-0.023395007175963656,-0.001291409390572812,0.00571481650603185,-2.0088321128100553e-05
6.39,0.1483621501563448,-0.0524421215430948,-0.042241865649828014,0.001604110796628536,0.00854717400514096,-3.353772860117354e-05
6.4,0.1477376710257161,-0.052061396234037716,-0.05768095995506428,0.0041782470933601394,0.011082699432412106,-4.3138353496101144e-05
6.41,0.14698538099544578,-0.05186605732454552,-0.07059857288993499,-0.009752734739908363,-0.0024967849437794315,1.7915078699776643e-05
6.42,0.1472043154926439,-0.05239578500848552,-0.0005127641244939696,-0.003044202630933482,0.004009417935103719,-1.6803270974884073e-05
6.43,0.1457697911178002,-0.05267926458607519,-0.02378911553080343,-0.0012878477942970912,0.005728795573564974,-1.8915553782253088e-05
6.44,0.14573603625667175,-0.051626102761659354,-0.04249375866294258,0.001604201738348303,0.008569741369359807,-3.214508030209452e-05
6.45,0.1451166137567128,-0.051247789025765655,-0.05781588498621204,0.004175399007296687,0.011112470873015848,-4.159011993271263e-05
6.46,0.14436790124694454,-0.05105439154995395,-0.07063513624672169,-0.009730872570993277,-0.002509542201817613,1.83642401792541e-05
6.47,0.14455790260381463,-0.0515754692553827,-0.001085192664618262,-0.003032370712591847,0.004017898487251049,-1.5757214136416266e-05
6.48,0.14312939139227154,-0.051861523155949385,-0.024184124107762273,-0.0012776924137439648,0.005742422818093586,-1.784332447183619e-05
6.49,0.14310400195061135,-0.05081284442987055,-0.042745636896768247,0.0016107681592549983,0.008591618631816955,-3.085137841597907e-05
6.5,0.14248960779728037,-0.05043757632883228,-0.05795003819031308,0.00417890803353445,0.01114125330163443,-4.0139524650621995e-05
6.51,0.14174447073855845,-0.05024674504916504,-0.07067028693796829,-0.00970268800614589,-0.0025215867050840286,1.8715527795845738e-05
6.52,0.14190580409856324,-0.05075990873848468,-0.0016594914598044852,-0.003014340361937432,0.004026284504843863,-1.4806973610462366e-05
6.53,0.14048333705218852,-0.05104912442099874,-0.024579891899634276,-0.0012614459231800154,0.005755752203359232,-1.6865959122702238e-05
6.54,0.14046618979968173,-0.050005517051587844,-0.04299736506396812,0.0016233113398892384,0.008612857477575649,-2.9651229023849464e-05
6.55,0.139856789163062,-0.04963387420175991,-0.05808328939593821,0.004188279220237647,0.011169096344982737,-3.8781376753879844e-05
6.56,0.13911521932197246,-0.049446180776513415,-0.07070389909102914,-0.009668675839453768,-0.0025328634707596047,1.8975186210796972e-05
6.57,0.139248149650939,-0.04995213914504859,-0.002235514315884757,-0.0029906012448279824,0.004034626791277023,-1.3946962669514062e-05
6.58,0.13783175128345704,-0.050245048477393084,-0.024976280563748787,-0.001239594263012246,0.0057688327848720924,-1.597793101849236e-05
6.59,0.13782271635509602,-0.04920704670396958,-0.043248811003593346,0.0016413492424725196,0.008633504764351312,-2.85393707172981e-05
6.6,0.13721826842338913,-0.04883955644352511,-0.058215511877790505,0.00420303427734288,0.011196044878100189,-3.7510607594888944e-05
6.61,0.13648025192658508,-0.048655521514007205,-0.07073585070571653,-0.009629313486734133,-0.0025433224285547514,1.914926276055478e-05
6.62,0.13658504424363116,-0.04915495527058056,-0.0028131178453350003,-0.0029616259544809204,0.004042971374126117,-1.3171751373699431e-05
6.63,0.13517473314905715,-0.049452036909869435,-0.02537315488382319,-0.0012126063224453822,0.005781708906589667,-1.5173869038282092e-05
6.64,0.1351736745869303,-0.04842012333305945,-0.043499846142935894,0.001664416820702625,0.008653602718536269,-2.7510682910527267e-05
6.65,0.13457413305939525,-0.04805726286249978,-0.05834658260539527,0.0042227118768360895,0.011222139219953096,-3.632227910109427e-05
6.66,0.13383965087321315,-0.0478773581225056,-0.0707660237253549,-0.009585060743223989,-0.0025529182206519997,1.9243600866879695e-05
6.67,0.1339165705438461,-0.048370919456530714,-0.0033921619646548606,-0.002927869760101097,0.004051359702759893,-1.2476073762346465e-05
6.68,0.13251235987610244,-0.04867260124719053,-0.025770383267342822,-0.0011809336975051434,0.005794420398045295,-1.4448564709054796e-05
6.69,0.13251913613121502,-0.047647209102663624,-0.04375034571069136,0.0016920662549204843,0.008673189131597365,-2.656019301460628e-05
6.7,0.1319244497022254,-0.04728940772302792,-0.05847638281153422,0.004246867879184308,0.011247415329311446,-3.5211590999650144e-05
6.71,0.13119347810341964,-0.04711405801494095,-0.07079430460521507,-0.009536359613093157,-0.0025616100018497692,1.926383468924852e-05
6.72,0.13124279111931259,-0.04760237007239709,-0.003972510214111935,-0.0028897704270162182,0.004059828845820138,-1.185483390332506e-05
6.73,0.129844689080727,-0.04790903151530301,-0.026167838029778068,-0.001145010519792544,0.005807002771256885,-1.3796978131007837e-05
6.74,0.12985915349261745,-0.04689054697415429,-0.04400018919881177,0.001723867117251447,0.008692297556185646,-2.5683082528676416e-05
6.75,0.1292692663135142,-0.04653818821864775,-0.05860479816988118,0.004275075490488617,0.01127190500025544,-3.417388699240212e-05
6.76,0.12854177733334637,-0.04636777361177735,-0.07082058438356853,-0.009483634206163521,-0.0025693612405267886,1.9215384952357573e-05
6.77,0.12856375057879177,-0.0468514302465195,-0.004554029970904594,-0.0028477481037592596,0.004068411687955219,-1.1303110859267441e-05
6.78,0.12717176087306825,-0.04716340479937742,-0.026565395749855725,-0.0011052533514445883,0.005819487416813566,-1.3214242834093595e-05
6.79,0.127193762131661,-0.04615216929515498,-0.04424926046908695,0.0017594064712107144,0.008710957501364403,-2.487469210322503e-05
6.8,0.12660861423263725,-0.045805593078540596,-0.0587317189371106,0.004306925354819914,0.011295636056722437,-3.32046599340478e-05
6.81,0.12588457609208348,-0.045640450920814146,-0.07084475907248589,-0.00942729069733337,-0.0025761395209817836,1.910345588122857e-05
6.82,0.12587947762821017,-0.046120016499173744,-0.005136592911014759,-0.0028022052716638072,0.00407713712525367,-1.0816162629576282e-05
6.83,0.1244935998778729,-0.04643759393907487,-0.02696293723403187,-0.0010620611418875046,0.005831901798596392,-1.2695669624381055e-05
6.84,0.12452298244980398,-0.04543390641487122,-0.044497448143943075,0.0017982889101500912,0.008729194626421978,-2.4130525630818677e-05
6.85,0.12394251017067148,-0.04509341116509802,-0.05885704030816896,0.004342025586084896,0.011318632545573394,-3.229955606650907e-05
6.86,0.123221887671221,-0.044933838196925535,-0.07086672958678264,-0.009367717344359493,-0.0025819163476899602,1.893303317695368e-05
6.87,0.12318998699356598,-0.04540984747336552,-0.00572007493815363,-0.002753526752664162,0.0040860302588483595,-1.0389429127261173e-05
6.88,0.12181021715296225,-0.045733276223813846,-0.027360347942817498,-0.001015815242118751,0.005844269646607324,-1.2236749478584747e-05
6.89,0.12184682170346406,-0.04473739533494836,-0.044744645499861235,0.001840136538778992,0.008747030932750335,-2.344625341942047e-05
6.9,0.1212709580666882,-0.044403240142543154,-0.05898066245180189,0.004380001743620366,0.011340914927665884,-3.145437836236261e-05
6.91,0.1205537129855827,-0.04424949445969162,-0.0708864020637634,-0.009305284559774182,-0.002586666951932102,1.870888296648885e-05
6.92,0.12049528128166287,-0.04472245265674246,-0.006304356432451641,-0.0027020797711327987,0.004095112586231149,-1.0018534249051494e-05
6.93,0.1191216120366434,-0.045051942043627946,-0.02775751802630566,-0.000966879472371419,0.005856611147460116,-1.183315554474174e-05
6.94,0.11916527579813874,-0.04406408837809295,-0.04499075075159453,0.001884588901873886,0.008764484953350169,-2.2817714503257072e-05
6.95,0.11859395090407787,-0.043736495021207134,-0.05910249043949989,0.004420496755601404,0.011362500266504705,-3.066508903009182e-05
6.96,0.1178800423140558,-0.0435887981442562,-0.07090368782769474,-0.009240345032844531,-0.0025903701012315594,1.843555166092174e-05
6.97,0.11779535276534858,-0.044059181023570204,-0.006889322321512736,-0.0026482140657084242,0.004104402189851163,-9.699287096942814e-06
6.98,0.11642777386189351,-0.04439490353114195,-0.02815434228864433,-0.0009156002391486121,0.005868943132110036,-1.1480744306512166e-05
6.99,0.11647833100258964,-0.043415261767876245,-0.045235667016640946,0.0019313028641550474,0.008781571939547863,-2.2240918145641306e-05
7.0,0.11591147235368027,-0.04309441678174153,-0.059222434565242565,0.004463170794214867,0.011383402414059768,-2.9927811233258042e-05
7.01,0.11520085702709792,-0.042952955601194276,-0.07091850338980521,-0.009173233897645284,-0.002593007911984198,1.8117366657459263e-05
7.02,0.11509018500888146,-0.04342120971223551,-0.007474862115941505,-0.0025922620472216664,0.004113913922611441,-9.427682408202137e-06
7.03,0.11372868360393085,-0.043763303150257116,-0.028550720365672078,-0.0008623066977648313,0.005881279260443951,-1.1175555967717367e-05
7.04,0.11378596558753173,-0.04279202411971994,-0.04547930235077047,0.001979952445161002,0.00879830404455001,-2.1712044587307335e-05
7.05,0.11322349842579627,-0.04247808084834048,-0.05934041009680868,0.004507701106394266,0.01140363219338808,-2.923883007514381e-05
7.06,0.11251613110108138,-0.042343009525325215,-0.07093077044828533,-0.009104268943430605,-0.0025945656656273606,1.775843782174469e-05
7.07,0.1123797544710925,-0.042809552560640896,-0.00806086994487032,-0.0025345389989467606,0.0041236595899197155,-9.199900250289244e-06
7.08,0.11102431544784963,-0.04315812216049153,-0.028946556547282398,-0.0008073109566523583,0.0058936302023948756,-1.0913814112692274e-05
7.09,0.11108815133997751,-0.042195324967408965,-0.04572156967697083,0.0020302286128389985,0.008814690503508544,-2.1227445093204344e-05
7.1,0.11052999895788673,-0.04188840544649963,-0.05945633748893897,0.004553781803807829,0.011423197577733885,-2.8594592899516217e-05
7.11,0.1098258326548418,-0.041759847411171336,-0.07094041585276045,-0.009033750863656431,-0.0025950316286546884,1.7362659688377866e-05
7.12,0.1096640319753206,-0.04222506847284535,-0.008647244449377922,-0.002475343315564955,0.004133648127989834,-9.012305035724582e-06
7.13,0.10831463824523269,-0.042580189028029736,-0.029341759990586525,-0.0007509083198438075,0.005906003815280986,-1.0691924697114122e-05
7.14,0.10838485501096784,-0.04162596303203259,-0.04596238682097464,0.0020818390394038108,0.008830737809798058,-2.0783641349314796e-05
7.15,0.10783093904009888,-0.041326159960775044,-0.05957014199253763,0.00460112361562559,0.011442103865820489,-2.799170895730995e-05
7.16,0.10712992535300003,-0.041204209715317575,-0.07094737153323649,-0.008961963540122481,-0.0025943968767520864,1.6933714319176206e-05
7.17,0.10694298413049808,-0.04166846983011396,-0.00923388888907084,-0.0024149567773392062,0.00414388577811512,-8.861443910783182e-06
7.18,0.1055996168775053,-0.04203018770354561,-0.029736244329114925,-0.0006933775641638756,0.005918405317099377,-1.0506474422502229e-05
7.19,0.10567603969668937,-0.041084594464280144,-0.04620167640467798,0.002134507822906276,0.008846449887244265,-2.0377324260259436e-05
7.2,0.10512628035641569,-0.04079197307937932,-0.05968175379678087,0.004649453607474645,0.011460353853073561,-2.7426948487703463e-05
7.21,0.10442836970270264,-0.040676698001007594,-0.07095157439351851,-0.008889174358887355,-0.002592655123289423,1.6475074760334703e-05
7.22,0.10421657461900935,-0.041140330662159386,-0.009820710928920562,-0.002353644856180389,0.004154376256683173,-8.744044570548234e-06
7.23,0.10287921358376195,-0.04150866571350775,-0.030129927850452987,-0.0006349812478365496,0.005930837455543545,-1.0354228546206196e-05
7.24,0.1029616660597199,-0.040571740909101095,-0.046439365668504706,0.0021879751777796885,0.008861828258074946,-2.0005352196812312e-05
7.25,0.10241598245919192,-0.04028634079666915,-0.059791107993589776,0.004698514869826748,0.011477947998552946,-2.689724126109313e-05
7.26,0.10172112432371705,-0.040177782958394914,-0.07095296620462932,-0.008815634554698902,-0.002589802552376376,1.5990009041425812e-05
7.27,0.10148476542681806,-0.04064109462298404,-0.010407622497154989,-0.002291657050382337,0.0041651209207203685,-8.657012551280147e-06
7.28,0.10015338913760274,-0.04101604216266708,-0.030522733283078196,-0.0005759660473080839,0.005943300672543405,-1.0232128177352571e-05
7.29,0.1002416935946826,-0.04008779742825652,-0.046675386471406455,0.0022419970975339734,0.008876872206395308,-1.9664748741289804e-05
7.3,0.09970000390602252,-0.03980963429128792,-0.059898144080250404,0.004748066178961495,0.011494884587404063,-2.6399674629878304e-05
7.31,0.09900814708085903,-0.039707812158340516,-0.07095149342717377,-0.008741579580872702,-0.0025858376566622356,1.54815846610984e-05
7.32,0.09874751802030346,-0.04017108294895877,-0.010994539856312713,-0.0022292272449694565,0.004176118928787651,-8.597428049404155e-06
7.33,0.09742210398844264,-0.04055261552338152,-0.030914587725305864,-0.0005165631192627174,0.005955793264150211,-1.013728710743164e-05
7.34,0.09751608168073744,-0.03963304024523495,-0.04690967507769983,0.002296344992597241,0.008891578937017329,-1.9352699977143218e-05
7.35,0.09697830338772917,-0.039362107635554366,-0.06000280620810372,0.004797881633476582,0.01151115988865494,-2.5931491131798014e-05
7.36,0.09628939617645216,-0.03926701772627439,-0.07094710710475738,-0.008667229501671878,-0.0025807610800226994,1.495267350646683e-05
7.37,0.09600479437654741,-0.03973050206163009,-0.01158138328349878,-0.002166574094740213,0.004187367397080678,-8.562542314853845e-06
7.38,0.09468531932288471,-0.04011857128283225,-0.03130542239659917,-0.0004569884849349845,0.005968311535624068,-1.0066988222527996e-05
7.39,0.09478479063851353,-0.03920763430365071,-0.04714217201495785,0.0023508053061747037,0.008905943729500088,-1.9066551367557517e-05
7.4,0.09425084074088375,-0.03894390528280667,-0.06010504289832852,0.00484775026919222,0.011526768308227481,-2.5490085688823965e-05
7.41,0.09356483113620584,-0.03885552379401247,-0.07093976254424206,-0.00859278940437337,-0.0025745754652633512,1.4405957155030976e-05
7.42,0.09325655801362132,-0.039319451108355,-0.012168077105911834,-0.0021039014272085177,0.0041988615506063235,-8.549773664604178e-06
7.43,0.09194299801951189,-0.03971398935931347,-0.03169517253098775,-0.00039744343394746383,0.005980849951600486,-1.0018679542654014e-05
7.44,0.09204778268934177,-0.03881164064800657,-0.04737282189637426,0.00240517911087343,0.008919960087284072,-1.8803804266237724e-05
7.45,0.09151757786263204,-0.038555069368229056,-0.06020480675772433,0.004897475655174661,0.011541702537043678,-2.5073002443207578e-05
7.46,0.09083441377288892,-0.03847335375617433,-0.07092941945785469,-0.008518449828367785,-0.0025672853069303083,1.384393251022853e-05
7.47,0.090502774861001,-0.038937929280891126,-0.012754549381099878,-0.0020413986628005565,0.004210594869341053,-8.556703160474262e-06
7.48,0.08919510558147437,-0.039338851332004765,-0.03208377730601342,-0.00033811494505673104,0.005993401281241984,-9.989969931518478e-06
7.49,0.08930502283011066,-0.03844502359129365,-0.04760157331418213,0.002459281688686965,0.008933619881824055,-1.8562112101742795e-05
7.5,0.08877847963439933,-0.038195546867569874,-0.06030205433660285,0.004946875473444224,0.011555953694138397,-2.467793127061438e-05
7.51,0.08809810899457204,-0.03812043735784698,-0.07091604146580721,-0.008444387208754279,-0.00255889680930794,1.3268917723957462e-05
7.52,0.08774341414330422,-0.03858584284976985,-0.013340731754851731,-0.0019792412497934616,0.004222559229288136,-8.581069993395555e-06
7.53,0.08644161092252745,-0.03899304748422594,-0.032471179558513086,-0.000279176121314585,0.0060059567382990085,-9.97862451839337e-06
7.54,0.08655647967703572,-0.03810765767831015,-0.04782837862649103,0.002512942096809475,0.008946913491651061,-1.833927627514421e-05
7.55,0.08603351467240117,-0.037865196462760764,-0.060396746093260845,0.004995781084822048,0.011569511464710216,-2.430270400855761e-05
7.56,0.08535588561287,-0.03779661748026797,-0.07089959598971518,-0.008370764332044102,-0.00254941774965697,1.2683058361487339e-05
7.57,0.08497844916188768,-0.038263012092087934,-0.013926559532251304,-0.001917591111607747,0.004234745038379651,-8.620766614378761e-06
7.58,0.08368248717083304,-0.03867638358912018,-0.03285732560698307,-0.0002207866372826513,0.006018506116025723,-9.982559871866204e-06
7.59,0.08380212617176142,-0.03779933441805383,-0.0480531937441242,0.0025660027216237234,0.008959829936309654,-1.8133241808887425e-05
7.6,0.0832826560781541,-0.03756379525654552,-0.06048884603870874,0.0050440370832311645,0.011582364233058313,-2.394529043671841e-05
7.61,0.08260771707568892,-0.03750165684657247,-0.07088005418154353,-0.00829773080170218,-0.0025388573467240733,1.2088333766509765e-05
7.62,0.08220785796098085,-0.037969177917318575,-0.014511971038189131,-0.0018565971042059726,0.004247141367190616,-8.673833650607726e-06
7.63,0.08091771233509348,-0.03838858751770147,-0.033242165216051944,-0.00016309319607218128,0.006031037916918978,-9.999838963188802e-06
7.64,0.0810419402963447,-0.037519768829596956,-0.048275977952982885,0.0026183188230654965,0.008972357005137068,-1.7942092782926252e-05
7.65,0.0805258821223731,-0.037291045220655406,-0.060578321665616386,0.005091500840637314,0.011594499210377128,-2.36037940439644e-05
7.66,0.07985358212891924,-0.03723524434562364,-0.07085739060386231,-0.008225423511402383,-0.0025272261345408668,1.1486563586274212e-05
7.67,0.07943162399826065,-0.03770400830660492,-0.01509690790157947,-0.0017963954814717263,0.004259736074440644,-8.738454642924108e-06
7.68,0.07814726994403998,-0.03812931559821209,-0.03362565120568206,-0.00010622999410487286,0.006043539477263309,-1.0028665955141416e-05
7.69,0.07827590567721643,-0.03726860573038948,-0.04849669377193777,0.002669758071455681,0.008984481380875093,-1.7764047592501136e-05
7.7,0.07776317683116929,-0.037046579421939896,-0.060665143628568785,0.005138042044697528,0.011605902557398655,-2.327644761516829e-05
7.71,0.07709346535378359,-0.03699700133807937,-0.07083158305221104,-0.008153967123987364,-0.002514535841508488,1.0879414419057538e-05
7.72,0.07664973674437192,-0.03746710448560009,-0.015681314664561796,-0.0017371103665735467,0.0042725159272858654,-8.812950639175973e-06
7.73,0.07537114963263036,-0.03789815872679014,-0.03400773941564239,-5.0319191622395744e-05,0.006055997086479617,-1.0067380850330216e-05
7.74,0.07550401216249725,-0.03704542581139947,-0.04871530681072045,0.002720200078748707,0.00899618875810902,-1.759745405989248e-05
7.75,0.07499453054116145,-0.03682996806197991,-0.06074928563748472,0.005183542231047764,0.011616559501880643,-2.2961608669151436e-05
7.76,0.07432735775303456,-0.036786487482842745,-0.07080261237746299,-0.008083474554256821,-0.002500799274752389,1.026840654843913e-05
7.77,0.07386219217586643,-0.037258006919671516,-0.016265138604865115,-0.001678854227435465,0.004285466716415455,-8.895774675962395e-06
7.78,0.07258934763498814,-0.0376946483005014,-0.034388388563399985,4.5286129197450765e-06,0.006068396101300722,-1.0114454030893091e-05
7.79,0.07272625626164597,-0.03684975146356351,-0.04893178530807063,0.002769535926046563,0.009007463956557084,-1.744078443092814e-05
7.8,0.07221994040129687,-0.03664072425024756,-0.060830724351035315,0.005227894312057566,0.011626454450962626,-2.2657754777402966e-05
7.81,0.07155525724833467,-0.03660320651022175,-0.07077046230818951,-0.008014047453816696,-0.0024860302097098694,9.654920731045256e-06
7.82,0.07106899324149651,-0.03707620103376996,-0.016848329593699418,-0.001621728354557062,0.004298573365982764,-8.985506179179764e-06
7.83,0.06980186724625526,-0.03751826185727225,-0.03476755988884861,5.821390630495241e-05,0.006080721054798208,-1.0168480719702085e-05
7.84,0.0699426416872484,-0.03668105239107433,-0.04914610041595324,0.0028176676890940815,0.009018291029239633,-1.729263028490677e-05
7.85,0.069439410754768,-0.03647830952857589,-0.06090943895031842,0.005271002103752096,0.011635571098426497,-2.2363478791344258e-05
7.86,0.06877716902664588,-0.03644661174639907,-0.07073511930855148,-0.007945776696357642,-0.002470243284913156,9.040205006703038e-06
7.87,0.0682701503329497,-0.036921122701372155,-0.01743083991812,-0.0015658233395497807,0.004311820038407128,-9.080845312035543e-06
7.88,0.06700871921339058,-0.03736842850265987,-0.0351452171187816,0.00011064778347644817,0.006092955760302985,-1.0228175391135374e-05
7.89,0.06715317967476153,-0.036538750958214905,-0.04935822556006997,0.0028645079633575357,0.009028653365567815,-1.7151697385050765e-05
7.9,0.06665295360086532,-0.03634213921799301,-0.060985411209912854,0.00531277985248206,0.011643892526893341,-2.2077484004393332e-05
7.91,0.06599310598431885,-0.03631611132703938,-0.0706965721875008,-0.00787874286182889,-0.0024534539019025105,8.425381502031017e-06
7.92,0.06546568154242038,-0.036792163466969896,-0.018012624209973183,-0.0015112195528550754,0.004325190234108465,-9.18060729719019e-06
7.93,0.06420992211708665,-0.037244534123459516,-0.03552132625372906,0.00016175147144076914,0.006105083410280989,-1.029236615784682e-05
7.94,0.06435788933778497,-0.03642222738520218,-0.04956813658196779,0.002909979390189754,0.009038533789413664,-1.7016800494708667e-05
7.95,0.06386058887031254,-0.03623158747245725,-0.06105862517813421,0.005353151762832506,0.011651401305028133,-2.179857927317957e-05
7.96,0.06320308902907357,-0.036211073215497436,-0.07065481224088899,-0.007813016718091932,-0.0024356781302053623,7.811453200693455e-06
7.97,0.06265561308005374,-0.03668867565309597,-0.01859363905509781,-0.0014579876192337806,0.004338666886234843,-9.283716737850029e-06
7.98,0.0614055026382232,-0.03714592635262193,-0.035895855461376414,0.00021145585554502083,0.006117086670224266,-1.0359989157751798e-05
7.99,0.06155679796115976,-0.0363308245709959,-0.049775811454821905,0.002954014185455358,0.00904791465222579,-1.6886858182756287e-05
8.0,0.06106234473612915,-0.036145992101666025,-0.0611290670704534,0.005392051528123533,0.011658079579812006,-2.152567412068669e-05
8.01,0.06040714733757113,-0.03613083002562689,-0.07060983275408717,-0.007748659698754049,-0.002416932617296733,7.199310655580162e-06
8.02,0.059839979460463155,-0.03660997707655156,-0.019173843099906662,-0.001406188889718627,0.004352232450462274,-9.389201960764614e-06
8.03,0.05859549585096602,-0.03707191925883535,-0.03626877479234736,0.0002597010094270156,0.006128947767638053,-1.0430082963977753e-05
8.04,0.0587499412940673,-0.036263852773998906,-0.04998123003474575,0.002996553671905865,0.009056777921265444,-1.6760887639980726e-05
8.05,0.05825825782679317,-0.036084659242874295,-0.06119672505633389,0.0054294218647846304,0.011663909163959922,-2.125777384253046e-05
8.06,0.05760531860410367,-0.03607468359589916,-0.07056162910856756,-0.007685724375967752,-0.0023972345034659354,6.589738620368621e-06
8.07,0.05701882377806555,-0.036555355595879746,-0.019753196696115083,-0.0013558759088189622,0.004365868989943307,-9.496189402318707e-06
8.08,0.05577994540040265,-0.037021797876235496,-0.03664005614467669,0.00030643572982820793,0.006140648576201666,-1.0501783038539976e-05
8.09,0.055937363692137865,-0.03622059416841239,-0.05018437413184529,0.0030375478164789875,0.009065105263046103,-1.663799952654961e-05
8.1,0.05544837343940401,-0.0360468677307324,-0.06126158915265023,0.0054652140517506935,0.011668871618564225,-2.099397463572256e-05
8.11,0.05479764923599362,-0.036041909243778036,-0.07051019839110495,-0.007624254927098681,-0.0023766013414713693,5.983422579511927e-06
8.12,0.054192197866953506,-0.03652407347232156,-0.020331661900740983,-0.001307092875876036,0.004379558255509776,-9.603898057115119e-06
8.13,0.052958903689059866,-0.03699482245878016,-0.03700967312170178,0.00035161707735746855,0.006152170695208448,-1.0574316248835807e-05
8.14,0.05311911832173166,-0.036200306894329515,-0.05038522708389337,0.003076954773597252,0.009072878122078415,-1.6517392868995455e-05
8.15,0.05263274574396348,-0.036031873165143224,-0.06132365101052528,0.00549938747595561,0.011672948331071001,-2.073345876805138e-05
8.16,0.051984194486820456,-0.036031759993448986,-0.07045553942930383,-0.007564287594253682,-0.0023550510209015794,5.38095515820329e-06
8.17,0.051360162416358435,-0.03651537145543671,-0.02090920222741488,-0.0012598760995526865,0.0043932817612208665,-9.711634006852754e-06
8.18,0.050132432036775754,-0.036990232548106405,-0.03737760074784546,0.00039520992421258633,0.006163495524374773,-1.0646995464367724e-05
8.19,0.05029526725763844,-0.03620222909006543,-0.05058377389843827,0.0031147404354657064,0.009080077795012461,-1.639835002358888e-05
8.2,0.049811437810021175,-0.03603891205017362,-0.06138290380874878,0.0055319091849004975,0.011676120588676935,-2.0475489804338357e-05
8.21,0.04916501858076572,-0.03604347034169564,-0.07039765261396269,-0.007505851135761439,-0.002332601697119338,4.782842395203438e-06
8.22,0.04852278712164093,-0.036528472637797904,-0.021485782610852766,-0.0012142544445490518,0.004407020855362222,-9.818785045385949e-06
8.23,0.04730060073399045,-0.03700725072164346,-0.03774381546861605,0.00043718650974882713,0.006174604334126484,-1.0719214249494643e-05
8.24,0.04746588161630427,-0.03622558276461518,-0.05078000089753232,0.003150877990246038,0.009086685500283593,-1.6280231721401046e-05
8.25,0.04698452176654655,-0.03606720527571383,-0.06143934214719593,0.005562753447159861,0.011678369647255262,-2.02194079046057e-05
8.26,0.046340194810312596,-0.03607625997048558,-0.07033653957932984,-0.007448967268770515,-0.002309271724684609,4.189509863511386e-06
8.27,0.04568015071093612,-0.03656258616757668,-0.02206136919369328,-0.0011702497697029766,0.004420756787010115,-9.924815414654042e-06
8.28,0.044463489139445755,-0.03704508625190783,-0.038108295079553045,0.00047752600472907025,0.006185478331476132,-1.0790441666383045e-05
8.29,0.0446310415735951,-0.03626957720825885,-0.05097389561115051,0.003185347488928518,0.009092682443375577,-1.6162472208891125e-05
8.3,0.04415207881969252,-0.036115961776772565,-0.06149296190471887,0.00559190132164766,0.011679676795924814,-1.9964625207631286e-05
8.31,0.043509805527364165,-0.03612933731744761,-0.07027220334521189,-0.007393651102233303,-0.002285079595109804,3.6013086254966815e-06
8.32,0.042832341007326136,-0.03661691053480354,-0.022635929255443443,-0.0011278773567393926,0.004434470768289473,-1.0029260664283437e-05
8.33,0.04162118567130335,-0.037102938481581305,-0.038471018406482926,0.0005162140849765508,0.006196098721618196,-1.0860217200873434e-05
8.34,0.041790836426969236,-0.036333412403166676,-0.05116544681271762,0.0032181354216188757,0.009098049877827578,-1.6044574496417063e-05
8.35,0.0413141992794408,-0.03618438178421002,-0.061543760061510966,0.0056193402363354005,0.011680023417385837,-1.9710621312018503e-05
8.36,0.04067394223206122,-0.03620190257791478,-0.07020464799722959,-0.007339911559628606,-0.0022600438788670657,3.018521010765293e-06
8.37,0.03997945490219479,-0.036690637017500194,-0.023209431141424375,-0.0010871463290040902,0.004448144032420324,-1.0131722646305297e-05
8.38,0.03877378787819907,-0.03718000000318966,-0.03883196534104627,0.0005532425150839833,0.006206446765337407,-1.0928145822476697e-05
8.39,0.038945364515541314,-0.036416282132023525,-0.051354644305945385,0.00324923430388229,0.009102769162081182,-1.5926105725639218e-05
8.4,0.038470982577365476,-0.03627165988007164,-0.0615917346635797,0.0056450635770616785,0.011679391044122269,-1.9456938865623054e-05
8.41,0.03783270546620088,-0.03629315095565744,-0.07013387861576348,-0.007287751790820302,-0.0022341831714669733,2.4413662066284905e-06
8.42,0.03712159840851825,-0.036782952506086986,-0.023781844120662754,-0.0010480600595936052,0.004461757887709003,-1.0231864655120565e-05
8.43,0.03592140231489793,-0.037275459607855055,-0.03919111669858921,0.0005886087427598948,0.006216503832390771,-1.0993893188383067e-05
8.44,0.03609473330890012,-0.036517376909017685,-0.05154147878272397,0.003278642273718383,0.009106821812322415,-1.5806692665524087e-05
8.45,0.03562253716005159,-0.03637698789304977,-0.06163688460958383,0.005669070286999011,0.011677761410623454,-1.920317927278988e-05
8.46,0.03498620488429083,-0.036402275451763444,-0.07005990127595396,-0.007237169572573341,-0.0022075160435201923,1.8700056525775482e-06
8.47,0.034258886492111174,-0.03689304238108093,-0.024353138172727995,-0.0010106165683720523,0.0044752937675915355,-1.0329406721327811e-05
8.48,0.03306414457782125,-0.03738850507417624,-0.039548454182636306,0.0006223155043093074,0.006226251450959736,-1.1057180999875745e-05
8.49,0.03323905924723647,-0.03663588671543039,-0.05172594182312196,0.0033063626996579663,0.009110189551422936,-1.5686017345392265e-05
8.5,0.03276898051574051,-0.03649955761630963,-0.06167920968636054,0.00569136447725363,0.01167511650172693,-1.8948998527825968e-05
8.51,0.032134559084795455,-0.036528469422592025,-0.0699827227990113,-0.007188157697282552,-0.002180060994627782,1.30454823156006e-06
8.52,0.031391443107153805,-0.037020093195394566,-0.02492328416536793,-0.0009748089074361312,0.0044887332768629926,-1.0424121066873266e-05
8.53,0.030202139162938124,-0.03751832576170955,-0.039903960171727704,0.0006543704416784894,0.006235671353319807,-1.1117782518536048e-05
8.54,0.030378467705816092,-0.03677100352206253,-0.05190802561116925,0.0033324038004022816,0.009112854354117286,-1.556381283213415e-05
8.55,0.029910439023339563,-0.03663856329438886,-0.06171871042681687,0.005711955049014448,0.011671438597223412,-1.869410318177032e-05
8.56,0.02927789559237226,-0.036670929137727626,-0.06990235075221563,-0.007140704349538103,-0.0021518364109553156,7.450552522404631e-07
8.57,0.02851940103631989,-0.03716329503689053,-0.02549225360581886,-0.0009406255346460198,0.00450205823423976,-1.0515827727630198e-05
8.58,0.027335519412474696,-0.03766411495575994,-0.04025761768389202,0.0006847857314385135,0.006244745517862141,-1.1175518248134e-05
8.59,0.027513092870634637,-0.036921923687316394,-0.05208772318354704,0.003356778276375901,0.009114798488558585,-1.5439859157771063e-05
8.6,0.027047047881367803,-0.03679320382588003,-0.06175538789676693,0.005730855327614328,0.011666710312861036,-1.843824644860708e-05
8.61,0.026416350697999746,-0.036828856035953095,-0.0698187933068084,-0.007094793470252686,-0.0021228605263896375,1.9154521771813296e-07
8.62,0.025642901819722397,-0.03732184380211834,-0.026060018463169854,-0.0009080506749257165,0.004515250711362749,-1.0604390348495547e-05
8.63,0.024464427363923846,-0.03782507215888131,-0.04060941044770061,0.0007135777259979622,0.0062534562075810055,-1.12302517871831e-05
8.64,0.024643077640718047,-0.03708784998224246,-0.05226502796773502,0.003379502953476422,0.009116004554359203,-1.5313979402233323e-05
8.65,0.024178950965847434,-0.036962685143748786,-0.06178924394362184,0.005748082708782871,0.011660914637859258,-1.8181224455827105e-05
8.66,0.023550069387923145,-0.03700145875029648,-0.06973205923799242,-0.007050405108073714,-0.0020931513870960806,-3.560016226245316e-07
8.67,0.022762095532868898,-0.03749494329241543,-0.026626551274944177,-0.0008770646690647909,0.004528293068403671,-1.0689712154884431e-05
8.68,0.021589013652345557,-0.038000405009341875,-0.04095932258252333,0.0007407666073020985,0.006261786005188726,-1.1281885855924537e-05
8.69,0.021768573477132236,-0.03726799382874901,-0.05243993403070135,0.003400598439276232,0.009116455517281817,-1.5186035935392017e-05
8.7,0.021306300697077063,-0.03714622190287287,-0.06182028066348266,0.005763658317325592,0.011654034969093377,-1.7922872643521594e-05
8.71,0.02067920513937338,-0.03718795513307782,-0.06964215781835037,-0.007007515757922181,-0.002062726819370706,-8.976389402726776e-07
8.72,0.019877140751134448,-0.03768180702579116,-0.027191825076045006,-0.000847644309842588,0.004541167986391714,-1.0771732103556335e-05
8.73,0.01870943727944052,-0.038189331270643834,-0.04130733863405567,0.0007663760531954826,0.006269717844972263,-1.1330358500557365e-05
8.74,0.01888974023422918,-0.03746157691608687,-0.05261243590126696,0.0034200887918420563,0.009116134740691648,-1.5055926821277273e-05
8.75,0.018429257879759575,-0.03734303943403461,-0.061848500756411795,0.0057776066784111825,0.011646055142062515,-1.7663062314953863e-05
8.76,0.01780391977845852,-0.03738757394344816,-0.06954909860468206,-0.006966098686507414,-0.0020316044006364765,-1.433450214976175e-06
8.77,0.01698820430107162,-0.037881660137628614,-0.02775581325664689,-0.0008197631653180729,0.0045538584964017,-1.0850421214675978e-05
8.78,0.015825865524732308,-0.03839108039471739,-0.04165344368090018,0.0007904329165910301,0.006277235041532802,-1.1375639476558397e-05
8.79,0.016006745999774807,-0.03766783297720622,-0.052782528285888475,0.003438001201320368,0.009115026013911065,-1.4923582386642137e-05
8.8,0.015547991516484672,-0.03755237534264211,-0.061873907277743,0.005789955401588892,0.011636959458780537,-1.74016973409072e-05
8.81,0.014924383329173452,-0.03759955649940139,-0.06945289172222147,-0.006926124244742262,-0.0019998014334454885,-1.9635448423750448e-06
8.82,0.014095461091656603,-0.03809374073071581,-0.028318489491141463,-0.0007933918892078125,0.004566348005742025,-1.0925779086158955e-05
8.83,0.01293847370575918,-0.03860489524498689,-0.04199762301482224,0.0008129669175303369,0.006284321315548221,-1.1417726812095014e-05
8.84,0.013119766917313314,-0.03788600924536922,-0.05295020642392956,0.0034543656843609018,0.00911311357761586,-1.4788961954974212e-05
8.85,0.012662678612329614,-0.03777348101863254,-0.0618965035315,0.0058007348776150935,0.011626732712729279,-1.713871101928228e-05
8.86,0.012040773809118832,-0.03782315809885972,-0.06935354747383826,-0.006887560167014025,-0.0019673349223549123,-2.488054461141872e-06
8.87,0.011199093927771742,-0.03831730150949397,-0.028879827809191738,-0.000768498518292143,0.004578620321271378,-1.0997830590498006e-05
8.88,0.010047445000438415,-0.0388300332865299,-0.04233986224733144,0.000834010348173309,0.0062909608166830285,-1.1456643551597134e-05
8.89,0.01022898695524077,-0.03811536785747194,-0.05311546580344384,0.0034692147914194733,0.009110382146396714,-1.4652050746598866e-05
8.9,0.009773504023868895,-0.0380056228976855,-0.06191629314145075,0.005809977988119928,0.01161536021099447,-1.687406309046157e-05
8.91,0.009153276998574711,-0.03805764928088706,-0.06925107637556494,-0.006850371857336157,-0.0019342215535406559,-3.0071294980126755e-06
8.92,0.008299293288160925,-0.038551610952453075,-0.02943980248915068,-0.0007450487568623296,0.004590659669978822,-1.1066622753499587e-05
8.93,0.007152970278312409,-0.03906576800716266,-0.042680147203100205,0.0008535977907157051,0.006297138143782854,-1.1492434678936372e-05
8.94,0.007334597720287661,-0.038355187061966944,-0.05327830212564777,0.0034825833269338125,0.009106816928622717,-1.4512856944400617e-05
8.95,0.006880660201602495,-0.03824808368690924,-0.06193327994452602,0.005817719828107061,0.011602827793725127,-1.660773690852534e-05
8.96,0.006262086262864841,-0.03830231715795662,-0.06914548929870534,-0.006814522662393276,-0.0019004776770095017,-3.520935928248973e-06
8.97,0.005396257130030335,-0.03879595444900019,-0.0299983879514798,-0.000723006248231791,0.004602450716962861,-1.1132221813574491e-05
8.98,0.004255247789686223,-0.03931138991219996,-0.04301846402654519,0.0008717658481960011,0.006302838362488511,-1.1525164218860243e-05
8.99,0.004436798244356055,-0.03860476230244103,-0.05343871123386634,0.003494508082328718,0.009102403643737928,-1.4371408924396283e-05
9.0,0.003984346985674847,-0.0385001634661819,-0.061947467990819405,0.005823997441235868,0.011589121851041849,-1.633973676751216e-05
